"Time (s)","Linear Acceleration x (m/s^2)","Linear Acceleration y (m/s^2)","Linear Acceleration z (m/s^2)"
0.000000000E0,0.000000000E0,0.000000000E0,0.000000000E0
0.000000000E0,1.921129227E-2,1.103198528E-2,-4.773950577E-2
0.000000000E0,4.049301147E-2,1.377594471E-2,-2.628712654E-1
0.000000000E0,3.444480896E-2,4.281520844E-2,-1.452989578E-1
0.000000000E0,1.569652557E-1,3.302824497E-2,4.886913300E-2
0.000000000E0,-1.642370224E-2,3.064572811E-2,8.226060867E-2
0.000000000E0,-1.387515068E-1,5.424678326E-2,-8.040428162E-3
0.000000000E0,-8.286428452E-2,1.096522808E-1,-3.920269012E-2
0.000000000E0,4.640579224E-2,1.033467054E-1,-1.894140244E-2
3.714949000E-3,1.478757858E-1,4.527151585E-2,-1.521587372E-3
8.507345000E-3,1.519012451E-1,-2.439808846E-2,-3.633880615E-2
1.329994900E-2,1.191611290E-1,-5.999422073E-2,-1.041421890E-1
1.809244900E-2,1.026625633E-1,-6.924450397E-2,-1.634573936E-1
2.288494900E-2,1.207132339E-1,-3.876471519E-2,-1.911134720E-1
2.767744900E-2,8.173227310E-2,-1.374220848E-2,-1.624956131E-1
3.246994900E-2,3.601551056E-2,5.903482437E-3,-7.388114929E-2
3.726244900E-2,6.913423538E-2,-7.646822929E-2,-1.193809509E-1
4.205494900E-2,2.915334702E-2,-4.836630821E-2,1.235923767E-1
4.684744900E-2,-5.789041519E-2,-3.351151943E-2,2.763900757E-1
5.163994900E-2,-1.575536728E-1,-7.239091396E-2,3.925628662E-1
5.643244900E-2,-1.979365349E-1,-1.468736529E-1,4.909820557E-1
6.122494900E-2,-1.857986450E-1,-1.897032857E-1,5.252447128E-1
6.601744900E-2,-1.346139908E-1,-2.187001705E-1,6.287431717E-1
7.080994900E-2,-8.892440796E-2,-2.323179245E-1,6.363096237E-1
7.560244900E-2,-8.424186707E-2,-2.770709991E-1,5.337486267E-1
8.039494900E-2,-4.676151276E-2,-3.332909942E-1,3.966026306E-1
8.518744900E-2,-9.454250336E-3,-3.565935493E-1,3.041439056E-1
8.998000100E-2,5.758237839E-2,-3.639355302E-1,3.119678497E-1
9.477250100E-2,1.116647720E-1,-3.670018315E-1,3.378582001E-1
9.956500100E-2,1.530528069E-1,-3.471380472E-1,3.694772720E-1
1.043575010E-1,1.380853653E-1,-3.186953068E-1,3.903560638E-1
1.091500010E-1,1.284275055E-1,-2.399343848E-1,4.910526276E-1
1.139425010E-1,7.244920731E-2,-1.445448399E-1,5.484380722E-1
1.187350010E-1,4.311132431E-2,-9.541487694E-2,5.218906403E-1
1.235275010E-1,6.232309341E-2,-1.327753663E-1,4.552888870E-1
1.283200010E-1,7.490825653E-2,-2.217032909E-1,3.633928299E-1
1.331125010E-1,1.110882759E-1,-2.913664877E-1,3.630428314E-1
1.379050010E-1,1.699795723E-1,-3.193617761E-1,4.213953018E-1
1.426975010E-1,1.574616432E-1,-2.419439256E-1,5.088853836E-1
1.474900010E-1,6.805706024E-2,-1.017013788E-1,5.174655914E-1
1.522825010E-1,2.223682404E-2,2.490943670E-2,6.029634476E-1
1.570750010E-1,-4.915332794E-2,1.194969416E-1,6.163082123E-1
1.618675530E-1,-1.620545387E-1,1.944870949E-1,5.754804611E-1
1.666600530E-1,-2.574028969E-1,2.433231473E-1,5.399942398E-1
1.714525530E-1,-3.124537468E-1,2.831932306E-1,4.791555405E-1
1.762450530E-1,-3.630867004E-1,3.028807044E-1,3.396663666E-1
1.810375530E-1,-3.648443222E-1,2.868828177E-1,2.542228699E-1
1.858300530E-1,-3.609251976E-1,2.879160047E-1,1.348886490E-1
1.906225530E-1,-3.191432953E-1,2.030555606E-1,6.866455078E-2
1.954150530E-1,-2.688865662E-1,2.476761937E-1,4.475593567E-2
2.002075530E-1,-1.849274635E-1,2.248156369E-1,1.984119415E-2
2.050000530E-1,-2.928500175E-1,2.881034613E-1,7.858276367E-2
2.097925530E-1,-4.087052345E-1,3.653647304E-1,1.558876038E-1
2.145850530E-1,1.564087868E-1,3.952940702E-1,4.596509933E-1
2.193775530E-1,-2.739892006E-1,3.998973072E-1,3.499727249E-1
2.241700530E-1,-5.042166710E-1,4.080381691E-1,1.024818420E-1
2.289625530E-1,-6.736736298E-1,4.664127529E-1,-8.040714264E-2
2.337550530E-1,-7.603073120E-1,5.996071100E-1,-1.365699768E-1
2.385475530E-1,-7.594532967E-1,6.769320369E-1,-4.747390747E-2
2.433400530E-1,-7.881946564E-1,7.272180915E-1,3.145122528E-2
2.481326050E-1,-7.942805290E-1,7.484684587E-1,1.051664352E-1
2.529251050E-1,-8.482985497E-1,6.845067739E-1,1.222524643E-1
2.577176050E-1,-8.288812637E-1,6.026004553E-1,6.979084015E-2
2.625101050E-1,-7.743549347E-1,5.029475093E-1,8.006095886E-3
2.673026050E-1,-6.845903397E-1,3.812056482E-1,-3.753662109E-3
2.720951050E-1,-8.609237671E-1,3.253614008E-1,-6.012248993E-2
2.768876050E-1,-6.017236710E-1,2.382131815E-1,-7.324695587E-2
2.816801050E-1,-6.050825119E-2,2.054968923E-1,7.600688934E-2
2.864726050E-1,2.964448929E-1,1.842186898E-1,2.226200104E-1
2.912651050E-1,5.240297318E-1,1.320548505E-1,1.994104385E-1
2.960576050E-1,6.835007668E-1,5.200669169E-2,1.410932541E-1
3.008501050E-1,8.281941414E-1,-3.649836779E-2,5.073547363E-2
3.056426050E-1,8.900549412E-1,-5.780771002E-2,-3.339385986E-2
3.104351050E-1,8.962960243E-1,-5.749416724E-2,-1.608915329E-1
3.152276050E-1,8.669764996E-1,-1.713361777E-2,-3.050441742E-1
3.200201050E-1,8.194425106E-1,3.676151857E-3,-4.560747147E-1
3.248126570E-1,8.062372208E-1,5.474345013E-2,-5.334892273E-1
3.296051570E-1,7.137672901E-1,1.191387028E-1,-5.901269913E-1
3.343976570E-1,6.423866749E-1,1.966632307E-1,-5.624208450E-1
3.391901570E-1,6.147091389E-1,2.590361536E-1,-3.618841171E-1
3.439826570E-1,6.687049866E-1,2.780819535E-1,1.246547699E-1
3.487751570E-1,7.923545837E-1,2.662813067E-1,6.853952408E-1
3.535676570E-1,1.030974865E0,2.359587252E-1,1.002580643E0
3.583601570E-1,2.104451418E0,-1.344287395E-2,1.480572701E0
3.631526570E-1,1.879130125E0,-1.009088457E-1,1.435138702E0
3.679451570E-1,1.628205419E0,-2.456239462E-1,5.901823044E-1
3.727376570E-1,1.484354615E0,-3.359532952E-1,1.001825333E-1
3.775301570E-1,1.243678808E0,-3.494638801E-1,-1.405849457E-1
3.823226570E-1,1.091687322E0,-2.810063362E-1,-2.037563324E-1
3.871151570E-1,8.737505674E-1,-1.092179418E-1,-1.766490936E-1
3.919076570E-1,5.792375803E-1,5.670285225E-2,-7.931804657E-2
3.967001570E-1,3.136897087E-1,1.987822652E-1,5.894184113E-2
4.014927090E-1,3.031754494E-2,3.208274245E-1,2.044878006E-1
4.062852090E-1,-2.345461845E-1,4.790968895E-1,3.476753235E-1
4.110777090E-1,-4.786679745E-1,6.536350846E-1,5.238199234E-1
4.158702090E-1,-7.670900822E-1,6.856702566E-1,6.659317017E-1
4.206627090E-1,-7.791578770E-1,5.910323262E-1,9.490919113E-1
4.254552090E-1,-8.438429832E-1,5.441600084E-1,1.165433884E0
4.302477090E-1,-7.826292515E-1,4.193097949E-1,1.402826309E0
4.350402090E-1,-7.428896427E-1,2.362843752E-1,1.573070526E0
4.398327090E-1,-6.588492393E-1,2.371548414E-1,1.697980881E0
4.446252090E-1,-5.187728405E-1,1.757833958E-1,1.733029366E0
4.494177090E-1,-4.528698921E-1,3.030899763E-1,1.852090836E0
4.542102090E-1,-3.765542507E-1,3.978927732E-1,2.182350159E0
4.590027090E-1,-3.959586620E-1,6.036218405E-1,2.532179832E0
4.637952090E-1,-3.128144741E-1,6.458072662E-1,2.700033188E0
4.685877090E-1,-1.588848829E-1,6.016229987E-1,2.687676430E0
4.733802090E-1,-1.242841482E-1,5.432099700E-1,2.459006310E0
4.781727610E-1,-3.702604771E-2,3.647651672E-1,2.020955086E0
4.829652090E-1,1.264548302E-2,1.537083387E-1,1.529771805E0
4.877577610E-1,-6.887698174E-2,-6.058263779E-2,1.159303665E0
4.925502610E-1,-1.011302471E-1,-2.300696373E-1,8.044891357E-1
4.973427610E-1,-7.087278366E-2,-4.632738829E-1,3.873796463E-1
5.021352610E-1,-1.140159369E-1,-6.089863777E-1,-7.912349701E-2
5.069277610E-1,-8.561313152E-2,-8.209154010E-1,-5.823011398E-1
5.117202610E-1,-6.815612316E-2,-9.859555960E-1,-1.002982140E0
5.165127610E-1,-1.201274395E-1,-1.136998892E0,-1.284759521E0
5.213052610E-1,-1.103348732E-1,-1.240269780E0,-1.447683334E0
5.260977610E-1,-1.182429790E-1,-1.336107612E0,-1.469017982E0
5.308902610E-1,-8.649170399E-2,-1.403135061E0,-1.186466217E0
5.356827610E-1,6.160163879E-2,-1.472200632E0,-7.383213043E-1
5.404752610E-1,2.562798262E-1,-1.583134055E0,-2.050476074E-1
5.452677610E-1,4.072858095E-1,-1.689859986E0,3.121376038E-1
5.500602610E-1,5.562881231E-1,-1.784469724E0,8.196744919E-1
5.548527610E-1,7.058376074E-1,-1.823522806E0,1.205529213E0
5.596452610E-1,7.819271088E-1,-1.764181972E0,1.382638931E0
5.644377610E-1,7.953947783E-1,-1.621150613E0,1.305230141E0
5.692302610E-1,7.576550245E-1,-1.435298681E0,1.075216293E0
5.740228130E-1,7.420922518E-1,-1.164507508E0,7.273149490E-1
5.788153130E-1,6.596555710E-1,-8.715286255E-1,3.053903580E-1
5.836078130E-1,4.477889538E-1,-6.066480875E-1,-1.874570847E-1
5.884003130E-1,1.573711634E-1,-4.243989885E-1,-6.058931351E-1
5.931928130E-1,2.319580317E-1,-2.719296813E-1,-8.961334229E-1
5.979853130E-1,7.254636288E-2,-2.536031902E-1,-1.287190437E0
6.027778130E-1,-1.516081095E-1,-3.020926714E-1,-1.664087296E0
6.075703130E-1,-2.719388008E-1,-3.625064492E-1,-2.024230003E0
6.123628130E-1,-4.418516159E-1,-4.135765731E-1,-2.329440594E0
6.171553130E-1,-5.790393353E-1,-4.676433802E-1,-2.401766300E0
6.219478130E-1,-8.046604395E-1,-5.275518894E-1,-2.311734676E0
6.267403130E-1,-7.290675640E-1,-6.032001972E-1,-2.046338081E0
6.315328130E-1,-5.380021334E-1,-6.758241057E-1,-1.713803291E0
6.363253130E-1,-4.419054985E-1,-7.601658702E-1,-1.345511436E0
6.411178660E-1,-4.024130106E-1,-8.446294665E-1,-1.034352303E0
6.459103130E-1,-3.971862793E-1,-9.318645597E-1,-9.033184052E-1
6.507028660E-1,-4.347680807E-1,-1.028965116E0,-9.819145203E-1
6.554953660E-1,-4.069880247E-1,-1.081274748E0,-1.078430176E0
6.602878660E-1,-3.949707747E-1,-1.134246588E0,-1.114309311E0
6.650803660E-1,-2.640219927E-1,-1.133571267E0,-8.452596664E-1
6.698728660E-1,-4.496693611E-2,-1.189367414E0,-4.350767136E-1
6.746653660E-1,2.041610479E-1,-1.222867489E0,-2.863702774E-1
6.794578660E-1,4.273253679E-1,-1.217461109E0,-4.970178604E-1
6.842503660E-1,4.841111898E-1,-1.178121090E0,-8.860797882E-1
6.890428660E-1,4.437277913E-1,-1.119338155E0,-1.235877991E0
6.938353660E-1,3.412949443E-1,-1.074475527E0,-1.565562248E0
6.986278660E-1,1.924062967E-1,-1.029037833E0,-1.822897911E0
7.034203660E-1,-6.847369671E-2,-1.011095881E0,-2.053528786E0
7.082128660E-1,-2.427963018E-1,-1.033959627E0,-2.143591404E0
7.130053660E-1,-2.624657154E-1,-1.112911224E0,-2.056176186E0
7.177979180E-1,-1.676385403E-1,-1.165333986E0,-1.814204693E0
7.225904180E-1,-6.544542313E-2,-1.149382353E0,-1.464356422E0
7.273829180E-1,2.080094814E-2,-1.013664722E0,-9.413366318E-1
7.321754180E-1,-5.558490753E-3,-7.570590973E-1,-3.918781281E-1
7.369679180E-1,6.235659122E-2,-5.004255772E-1,2.891445160E-2
7.417604180E-1,1.439098120E-1,-2.369035482E-1,3.052701950E-1
7.465529180E-1,2.883966565E-1,1.092112064E-2,4.812860489E-1
7.513454180E-1,3.023983836E-1,8.465480804E-2,5.485782623E-1
7.561379180E-1,2.746094465E-1,-1.580369473E-2,4.369468689E-1
7.609304180E-1,1.649384499E-1,-2.093023062E-1,5.753993988E-2
7.657229180E-1,6.812572479E-3,-4.055234194E-1,-4.187593460E-1
7.705154180E-1,-1.135475636E-1,-4.743605852E-1,-6.699914932E-1
7.753079180E-1,-1.880571842E-1,-4.032145739E-1,-5.974168777E-1
7.801004180E-1,-1.770503521E-1,-1.915748119E-1,-2.196254730E-1
7.848929180E-1,-7.153832912E-2,3.763198853E-2,4.302530289E-1
7.896854180E-1,7.348513603E-2,1.339126825E-1,1.038438797E0
7.944779180E-1,2.913435698E-1,-2.799081802E-2,1.395414352E0
7.992704700E-1,1.695787907E-1,-4.719543457E-2,1.212666512E0
8.040629700E-1,8.185160160E-2,2.942311764E-2,1.085912704E0
8.088554700E-1,-2.082931995E-2,1.413155794E-1,1.352125168E0
8.136479700E-1,-1.288135052E-1,1.637169123E-1,1.456756592E0
8.184404700E-1,-2.968131304E-1,3.168071508E-1,1.365270615E0
8.232329700E-1,-3.636257648E-1,4.754726887E-1,1.478433609E0
8.280254700E-1,-4.042110443E-1,5.564802885E-1,1.568911552E0
8.328179700E-1,-4.464005232E-1,5.350258350E-1,1.505938530E0
8.376104700E-1,-3.931592703E-1,4.200577736E-1,1.335689545E0
8.424029700E-1,-3.540754318E-1,2.324564457E-1,9.590606689E-1
8.471954700E-1,-2.315591574E-1,-4.044675827E-2,5.486907959E-1
8.519879700E-1,-1.035618782E-1,-1.570783854E-1,3.380126953E-1
8.567804700E-1,-1.251515150E-1,-5.645680428E-2,4.496765137E-1
8.615729700E-1,2.602335215E-1,-1.517083645E-1,7.318754196E-1
8.663654700E-1,2.063056231E-1,2.000627518E-1,1.015085220E0
8.711579700E-1,5.565829277E-1,4.345791340E-1,9.972686768E-1
8.759504700E-1,8.412492275E-1,3.343403339E-1,9.343061447E-1
8.807430220E-1,9.192230105E-1,3.589649200E-1,6.118364334E-1
8.855355220E-1,9.855134487E-1,2.685577869E-1,3.306427002E-1
8.903280220E-1,1.015578032E0,2.122268677E-1,7.826137543E-2
8.951205220E-1,9.205698967E-1,3.037593365E-1,-2.689208984E-1
8.999130220E-1,9.384458661E-1,3.414378166E-1,-3.337621689E-1
9.047055220E-1,1.062664032E0,3.694081306E-1,-1.814298630E-1
9.094980220E-1,1.074292064E0,3.463819027E-1,-1.027488708E-2
9.142905220E-1,9.397799969E-1,2.911248207E-1,-8.191299438E-2
9.190830220E-1,4.567528963E-1,1.824312210E-1,-3.020982742E-1
9.238755220E-1,2.317762375E-2,8.733654022E-2,-5.748109818E-1
9.286680220E-1,-1.155728102E-1,-1.783227921E-2,-7.403306961E-1
9.334605220E-1,-4.522235394E-1,-4.448175430E-3,-9.302797318E-1
9.382530220E-1,-5.492330790E-1,-1.253752708E-1,-8.304719925E-1
9.430455220E-1,-5.872422457E-1,-2.463843822E-1,-9.568271637E-1
9.478380220E-1,-6.432509422E-1,-3.217449188E-1,-1.156064987E0
9.526305220E-1,-6.659270525E-1,-2.012722492E-1,-1.185195923E0
9.574230740E-1,-5.863230228E-1,-8.318161964E-2,-7.715406418E-1
9.622155740E-1,-4.543980956E-1,4.937005043E-2,-3.365488052E-1
9.670080740E-1,-3.068870306E-1,5.364799500E-2,-1.923885345E-1
9.718005740E-1,1.791197062E-1,-5.544610023E-1,-4.047594070E-1
9.765930740E-1,3.276609778E-1,-7.548108101E-1,-4.481391907E-1
9.813855740E-1,1.950947642E-1,-5.756537914E-1,-3.041410446E-1
9.861780740E-1,5.630630255E-2,-3.451058865E-1,-3.307819366E-2
9.909705740E-1,9.618222713E-3,-1.258685589E-1,2.171487808E-1
9.957630740E-1,-8.923536539E-2,3.816032410E-2,2.828807831E-1
1.000555574E0,-2.055401802E-1,1.585764885E-1,2.201070786E-1
1.005348074E0,-2.864958346E-1,2.216207981E-1,1.127729416E-1
1.010140574E0,-3.979015350E-1,3.564550877E-1,8.739471436E-3
1.014933074E0,-5.276517868E-1,5.642178059E-1,9.899330139E-2
1.019725574E0,-5.924131870E-1,6.431202888E-1,2.474012375E-1
1.024518074E0,-4.191600084E-1,3.620510101E-1,2.371358871E-1
1.029310574E0,-3.152687550E-1,-3.221011162E-2,2.523250580E-1
1.034103126E0,-2.559299767E-1,-4.151084423E-1,2.641086578E-1
1.038895626E0,-2.215823382E-1,-7.195236683E-1,3.699007034E-1
1.043688126E0,-1.975803673E-1,-9.454441071E-1,3.880052567E-1
1.048480626E0,-1.885545254E-1,-1.066594362E0,3.161773682E-1
1.053273126E0,-1.659658551E-1,-1.016356468E0,8.788204193E-2
1.058065626E0,-1.167670637E-1,-8.692107201E-1,8.658409119E-3
1.062858126E0,-5.941526592E-2,-6.854650974E-1,5.654239655E-2
1.067650626E0,1.020353436E-1,-5.343472958E-1,6.185340881E-2
1.072443126E0,2.746511400E-1,-3.768527508E-1,-5.883693695E-2
1.077235626E0,4.042494893E-1,-1.614308357E-1,-3.055238724E-1
1.082028126E0,4.471776187E-1,3.005623817E-2,-6.259193420E-1
1.086820626E0,4.368948340E-1,1.416823864E-1,-9.534597397E-1
1.091613126E0,3.072214723E-1,2.435150146E-1,-1.305083275E0
1.096405626E0,-7.291277647E-1,2.701539993E-1,-1.893345833E0
1.101198126E0,-7.261835337E-1,9.269428253E-2,-2.305853367E0
1.105990678E0,-5.934406519E-1,3.983163834E-2,-2.512984753E0
1.110783126E0,-6.021021008E-1,6.849122047E-2,-2.565834045E0
1.115575678E0,-6.253714561E-1,7.462716103E-2,-2.605261803E0
1.120368178E0,-5.456325412E-1,-3.197908401E-2,-2.637821198E0
1.125160678E0,-4.579878151E-1,-2.551672459E-1,-2.693986893E0
1.129953178E0,-3.179140687E-1,-5.573513508E-1,-2.871117115E0
1.134745678E0,-2.868696153E-1,-8.621599674E-1,-3.068623543E0
1.139538178E0,-2.632979751E-1,-1.060086489E0,-3.298348904E0
1.144330678E0,-1.904875040E-1,-1.121415138E0,-3.414544106E0
1.149123178E0,-1.395140290E-1,-8.772878647E-1,-2.990336895E0
1.153915678E0,-3.958519697E-1,-2.268168926E-1,-2.026828766E0
1.158708178E0,-5.842271447E-1,2.580773830E-1,-1.190475464E0
1.163500678E0,-6.293076277E-1,6.194012165E-1,-4.375572205E-1
1.168293178E0,-7.530622482E-1,9.084665775E-1,2.945957184E-1
1.173085678E0,-8.675110340E-1,1.014354944E0,8.418464661E-1
1.177878178E0,-8.586618900E-1,9.118897915E-1,1.305203438E0
1.182670678E0,-7.431749105E-1,6.732587814E-1,1.580203056E0
1.187463230E0,-5.812519789E-1,3.392622471E-1,1.605543137E0
1.192255730E0,-3.304728568E-1,1.007819176E-2,1.336788177E0
1.197048230E0,-1.621100903E-1,-3.358054161E-1,8.511648178E-1
1.201840730E0,-5.124300718E-2,-5.241808891E-1,4.067325592E-1
1.206633230E0,-1.897284389E-2,-5.860786438E-1,3.875446320E-2
1.211425730E0,-1.966232061E-1,-6.970546246E-1,-3.609275818E-1
1.216218230E0,-3.601488471E-1,-9.458017349E-1,-8.143825531E-1
1.221010730E0,-4.806866646E-1,-9.002277851E-1,-9.043731689E-1
1.225803230E0,-8.075448275E-1,-7.288136482E-1,-1.058805466E0
1.230595730E0,-1.010436177E0,-5.874030590E-1,-1.127128601E0
1.235388230E0,-1.095150471E0,-4.741392136E-1,-9.260177612E-1
1.240180730E0,-1.178252935E0,-3.110642433E-1,-4.636096954E-1
1.244973230E0,-1.219021559E0,-1.683664322E-1,-3.162384033E-3
1.249765730E0,-1.200316906E0,-8.485388756E-2,3.408203125E-1
1.254558282E0,-1.163908601E0,-1.341295242E-2,6.212148666E-1
1.259350782E0,-1.119405627E0,7.353711128E-2,8.527765274E-1
1.264143282E0,-1.078273654E0,1.677815914E-1,9.906682968E-1
1.268935782E0,-1.017979503E0,1.873073578E-1,1.183400154E0
1.273728282E0,-9.276065826E-1,2.268927097E-1,1.371573448E0
1.278520782E0,-7.771893740E-1,1.481127739E-1,1.460044861E0
1.283313282E0,-6.464962959E-1,3.769564629E-2,1.468311310E0
1.288105782E0,-5.005390048E-1,-1.081321239E-1,1.501518250E0
1.292898282E0,-2.899147272E-1,-2.075338364E-1,1.609680176E0
1.297690782E0,-3.486716747E-2,-4.433267117E-1,1.637454033E0
1.302483282E0,2.460525036E-1,-6.948676109E-1,1.685070992E0
1.307275782E0,4.170553088E-1,-7.637085915E-1,1.821487427E0
1.312068282E0,4.046073556E-1,-7.527271509E-1,1.919936180E0
1.316860782E0,3.307570219E-1,-6.282973289E-1,1.916001320E0
1.321653282E0,2.718878090E-1,-4.356842041E-1,1.812289238E0
1.326445834E0,2.517023385E-1,-2.224569321E-1,1.723487854E0
1.331238334E0,2.730163336E-1,-1.928067207E-2,1.489704132E0
1.336030834E0,3.250172138E-1,1.027610302E-1,1.125696182E0
1.340823334E0,3.799578249E-1,4.714560509E-2,6.435794830E-1
1.345615834E0,3.022795320E-1,-1.270058155E-1,4.335594177E-2
1.350408334E0,3.071010113E-1,1.023411751E-2,-2.216386795E-1
1.355200834E0,2.439396083E-1,2.788431644E-1,-4.053239822E-1
1.359993334E0,1.679712832E-1,5.522711277E-1,-6.440124512E-1
1.364785834E0,2.006460130E-1,7.592382431E-1,-7.921714783E-1
1.369578334E0,2.239614427E-1,8.856685162E-1,-7.762432098E-1
1.374370834E0,2.877582908E-1,8.837232590E-1,-7.087554932E-1
1.379163334E0,4.397186339E-1,7.340006828E-1,-6.111030579E-1
1.383955834E0,6.151856184E-1,5.196979046E-1,-4.926843643E-1
1.388748334E0,7.281578779E-1,2.977914810E-1,-4.082727432E-1
1.393540834E0,8.550343513E-1,9.891200066E-2,-4.053297043E-1
1.398333334E0,8.599767089E-1,-6.084322929E-2,-4.214067459E-1
1.403125886E0,8.629280329E-1,-1.752383709E-1,-4.013271332E-1
1.407918386E0,8.065457940E-1,-2.354636192E-1,-3.975028992E-1
1.412710886E0,7.535909414E-1,-2.086875439E-1,-1.928462982E-1
1.417503386E0,6.373247504E-1,-1.190176010E-1,2.103519440E-2
1.422295886E0,4.724444151E-1,-2.617764473E-2,1.604566574E-1
1.427088386E0,3.051268160E-1,5.077242851E-2,2.231473923E-1
1.431880886E0,2.106580734E-1,3.117585182E-2,1.972398758E-1
1.436673386E0,7.904100418E-2,-3.618717194E-3,9.973335266E-2
1.441465886E0,-1.003319025E-2,1.821613312E-1,-1.524400711E-1
1.446258386E0,-7.134562731E-2,3.685224056E-1,-1.605091095E-1
1.451050886E0,-1.220540404E-1,4.698884487E-1,-1.447649002E-1
1.455843386E0,-1.047875881E-1,4.487631321E-1,-1.506576538E-1
1.460635886E0,-6.658113003E-2,3.416626453E-1,-1.971969604E-1
1.465428386E0,-1.456499398E-1,1.874551773E-1,-4.297008514E-1
1.470220886E0,-1.189019680E-1,6.280398369E-2,-6.661872864E-1
1.475013438E0,2.076791227E-1,5.092120171E-2,-5.463848114E-1
1.479805938E0,5.778030157E-1,8.206939697E-2,-3.790740967E-1
1.484598438E0,7.642266154E-1,1.203408241E-1,-3.123216629E-1
1.489390938E0,5.854079127E-1,1.541395187E-1,-3.220977783E-1
1.494183438E0,4.382904172E-1,1.452651024E-1,-2.531089783E-1
1.498975938E0,3.305094242E-1,1.152424812E-1,-2.200660706E-1
1.503768438E0,2.796059847E-1,8.067059517E-2,-2.514266968E-1
1.508560938E0,2.856939435E-1,-2.992320061E-2,-2.730789185E-1
1.513353438E0,3.169347048E-1,-1.730461121E-1,-1.826000214E-1
1.518145938E0,3.715943396E-1,-5.743513107E-1,-3.050365448E-1
1.522938438E0,2.842794061E-1,-3.535463810E-1,9.338378906E-3
1.527730938E0,1.986803561E-1,-8.798336983E-2,3.893852234E-2
1.532523491E0,1.032401472E-1,1.242091656E-1,1.778602600E-3
1.537315938E0,6.447502226E-2,2.713537216E-1,7.695960999E-2
1.542108491E0,1.005611196E-1,3.181965351E-1,2.163496017E-1
1.546900991E0,1.563041806E-1,2.723066807E-1,3.529481888E-1
1.551693491E0,2.278405279E-1,2.125997543E-1,3.651275635E-1
1.556485991E0,2.837830186E-1,1.006932259E-1,3.129444122E-1
1.561278491E0,3.590783179E-1,1.973986626E-2,3.255100250E-1
1.566070991E0,3.872152269E-1,-8.284211159E-2,4.002065659E-1
1.570863491E0,4.205972552E-1,-1.571946144E-1,4.772777557E-1
1.575655991E0,3.519840240E-1,-1.202864647E-1,5.377073288E-1
1.580448491E0,2.111820579E-1,-4.187679291E-2,5.457773209E-1
1.585240991E0,1.224782169E-1,-7.688045502E-2,4.585924149E-1
1.590033491E0,1.941108406E-1,-1.483702660E-1,5.292816162E-1
1.594825991E0,1.480181515E-1,-2.201774120E-1,5.044336319E-1
1.599618543E0,1.008419394E-1,-2.182545662E-1,4.010181427E-1
1.604410991E0,5.921748281E-2,-1.711208820E-1,2.669057846E-1
1.609203543E0,-1.321706176E-2,-8.354687691E-2,1.761283875E-1
1.613996043E0,-4.795822501E-2,-1.041269302E-2,1.190176010E-1
1.618788543E0,2.287358046E-2,1.792407036E-2,2.742938995E-1
1.623581043E0,9.001451731E-2,6.821703911E-2,1.403264999E-1
1.628373543E0,1.161125898E-1,1.064422131E-1,5.926036835E-2
1.633166043E0,1.372556388E-1,1.181159019E-1,7.632923126E-2
1.637958543E0,1.172917485E-1,9.135389328E-2,1.053838730E-1
1.642751043E0,4.157841206E-2,1.682639122E-2,1.797885895E-1
1.647543543E0,5.773329735E-2,-1.245117188E-2,2.613182068E-1
1.652336043E0,7.191917300E-2,7.331371307E-4,3.381357193E-1
1.657128543E0,1.245210767E-1,1.101398468E-2,3.887758255E-1
1.661921043E0,1.488174200E-1,1.099872589E-2,3.728218079E-1
1.666713543E0,1.241967678E-1,-2.072453499E-2,2.307624817E-1
1.671506095E0,7.700085640E-2,-1.726770401E-2,1.920337677E-1
1.676298595E0,9.018975496E-2,4.514908791E-2,1.323099136E-1
1.681091095E0,1.036213636E-1,9.010171890E-2,5.881881714E-2
1.685883595E0,1.338310838E-1,1.153879166E-1,3.840065002E-2
1.690676095E0,1.692702770E-1,1.402640343E-1,-3.103256226E-3
1.695468595E0,1.154194474E-1,1.291399002E-1,-1.802253723E-2
1.700261095E0,1.046872735E-1,1.346249580E-1,4.599571228E-2
1.705053595E0,1.449974775E-1,1.759123802E-1,5.976009369E-2
1.709846095E0,2.251401544E-1,1.814248562E-1,-3.159236908E-2
1.714638595E0,2.622402310E-1,2.281341553E-1,-1.110820770E-1
1.719431095E0,2.834116220E-1,2.544310093E-1,-1.837711334E-1
1.724223595E0,2.907512784E-1,2.394285202E-1,-2.641477585E-1
1.729016095E0,3.793486953E-1,1.931130886E-1,-3.451175690E-1
1.733808595E0,3.751544952E-1,1.633472443E-1,-4.219713211E-1
1.738601147E0,3.980783820E-1,1.736855507E-1,-4.588994980E-1
1.743393647E0,4.239873886E-1,1.450312138E-1,-4.702453613E-1
1.748186147E0,4.138542414E-1,1.248028278E-1,-3.532629013E-1
1.752978647E0,3.764831424E-1,8.859086037E-2,-2.202186584E-1
1.757771147E0,3.398579955E-1,6.467103958E-2,-1.115283966E-1
1.762563647E0,3.272245526E-1,3.365111351E-2,6.424903870E-3
1.767356147E0,4.048805237E-1,-9.490966797E-2,6.439399719E-2
1.772148647E0,3.247976899E-1,-8.748698235E-2,1.223344803E-1
1.776941147E0,2.234088778E-1,2.388954163E-3,1.613502502E-1
1.781733647E0,1.672710180E-1,5.999374390E-2,7.650184631E-2
1.786526147E0,1.746977568E-1,6.164073944E-2,1.211328506E-1
1.791318647E0,2.448982000E-1,4.578709602E-2,1.970844269E-1
1.796111147E0,3.446393013E-1,-3.239274025E-2,1.885604858E-1
1.800903699E0,4.445928335E-1,-1.482136250E-1,1.115493774E-1
1.805696199E0,4.578654766E-1,-8.081793785E-2,1.041927338E-1
1.810488699E0,4.193733931E-1,1.423597336E-2,-7.629394531E-2
1.815281199E0,4.179193974E-1,5.138134956E-2,-1.627969742E-1
1.820073699E0,3.772391081E-1,9.776496887E-2,-1.988811493E-1
1.824866199E0,3.498857021E-1,1.272466183E-1,-1.921014786E-1
1.829658699E0,3.759156466E-1,1.235208511E-1,-1.974220276E-1
1.834451199E0,3.762992620E-1,1.271474361E-1,-1.482543945E-1
1.839243699E0,3.581162691E-1,1.001513004E-1,-1.328353882E-1
1.844036199E0,3.926490545E-1,5.735945702E-2,-1.604633331E-1
1.848828699E0,3.567082882E-1,8.225917816E-3,-2.877578735E-1
1.853621199E0,3.103312254E-1,2.050399780E-5,-3.429946899E-1
1.858413699E0,2.608083487E-1,4.165887833E-2,-3.124790192E-1
1.863206251E0,4.359638691E-2,9.721112251E-2,-2.680311203E-1
1.867998751E0,6.357061863E-2,9.341502190E-2,-1.431598663E-1
1.872791251E0,4.789793491E-2,8.365797997E-2,-2.803773880E-1
1.877583751E0,3.563272953E-2,7.819914818E-2,-4.903411865E-1
1.882376251E0,3.009665012E-2,6.341743469E-2,-6.374931335E-1
1.887168751E0,1.731860638E-2,5.191946030E-2,-7.344398499E-1
1.891961251E0,-2.872347832E-2,7.250857353E-2,-7.223663330E-1
1.896753751E0,-2.685117722E-2,1.038827896E-1,-7.636394501E-1
1.901546251E0,-5.763113499E-2,1.247177124E-1,-8.365345001E-1
1.906338751E0,-4.689824581E-2,1.257126331E-1,-8.648996353E-1
1.911131251E0,-7.785129547E-2,8.808851242E-2,-8.846998215E-1
1.915923751E0,-1.385577917E-1,8.077287674E-2,-8.128242493E-1
1.920716251E0,-2.153921127E-1,1.104500294E-1,-7.020292282E-1
1.925508803E0,-2.610403299E-1,1.194758415E-1,-6.331338882E-1
1.930301303E0,-3.447677493E-1,1.454901695E-1,-5.154218674E-1
1.935093803E0,-4.568722248E-1,2.044529915E-1,-4.701347351E-1
1.939886303E0,-4.803053141E-1,2.575159073E-1,-5.084257126E-1
1.944678803E0,-4.028496146E-1,2.234194279E-1,-6.651649475E-1
1.949471303E0,-2.072733641E-1,1.756348610E-1,-7.542743683E-1
1.954263803E0,-1.295900345E-1,1.370508671E-1,-3.845548630E-1
1.959056303E0,3.463268280E-3,6.640934944E-2,7.030296326E-2
1.963848803E0,1.511389017E-1,-3.479003906E-3,3.344545364E-1
1.968641303E0,3.025673628E-1,-1.280968189E-1,5.233993530E-1
1.973433803E0,4.306175709E-1,-2.557601929E-1,6.496086121E-1
1.978226303E0,5.125344992E-1,-4.156339169E-1,7.847938538E-1
1.983018803E0,6.172932386E-1,-5.178501606E-1,9.313545227E-1
1.987811303E0,6.585441828E-1,-6.534353495E-1,1.072717667E0
1.992603855E0,6.169636250E-1,-7.440660000E-1,1.204312325E0
1.997396355E0,5.491518974E-1,-7.594659328E-1,1.288393021E0
2.002188855E0,5.062485933E-1,-7.620570064E-1,1.351608276E0
2.006981355E0,4.374092817E-1,-6.988953352E-1,1.330998421E0
2.011773855E0,2.791277170E-1,-5.938590765E-1,1.244881630E0
2.016566355E0,1.886883974E-1,-4.778656960E-1,1.134004593E0
2.021358855E0,1.845632792E-1,-3.888001442E-1,1.055710793E0
2.026151355E0,1.486454010E-1,-2.953190804E-1,1.038634300E0
2.030943855E0,1.733263731E-1,-2.420320511E-1,9.512825012E-1
2.035736355E0,1.199139357E-1,-1.541911364E-1,8.438501358E-1
2.040528855E0,7.454973459E-2,-9.328007698E-2,8.022108078E-1
2.045321355E0,1.771867275E-3,-2.997124195E-2,7.926492691E-1
2.050113907E0,2.180343866E-2,-5.909478664E-2,6.573314667E-1
2.054906407E0,4.217845201E-2,-7.447695732E-2,4.941616058E-1
2.059698907E0,6.329327822E-2,-6.341624260E-2,3.913326263E-1
2.064491407E0,3.741699457E-2,-6.836628914E-2,3.820018768E-1
2.069283907E0,-1.147657633E-2,-9.361553192E-2,3.822917938E-1
2.074076407E0,-8.349233866E-2,-6.236767769E-2,4.326925278E-1
2.078868907E0,-1.424138546E-1,-1.500606537E-2,4.446315765E-1
2.083661407E0,-1.994932890E-1,4.865098000E-2,3.249473572E-1
2.088453907E0,-2.514097691E-1,8.322906494E-2,1.549797058E-1
2.093246407E0,-2.618153691E-1,1.746945381E-1,1.329317093E-1
2.098038907E0,-2.683834434E-1,2.774770260E-1,1.294822693E-1
2.102831407E0,-2.151686549E-1,2.503867149E-1,2.754211426E-2
2.107623907E0,-8.528125286E-2,1.890249252E-1,-5.546569824E-3
2.112416459E0,-1.079559326E-2,1.723093987E-1,5.636024475E-2
2.117208959E0,1.258695126E-2,1.261880398E-1,7.939720154E-2
2.122001459E0,8.477091789E-3,9.118080139E-2,8.042716980E-2
2.126793959E0,7.631301880E-3,7.419395447E-2,1.145019531E-1
2.131586459E0,-2.193808556E-3,5.819869041E-2,1.386709213E-1
2.136378959E0,-2.358824015E-2,3.343629837E-2,1.291551590E-1
2.141171459E0,-4.723954201E-2,3.803753853E-2,7.413673401E-2
2.145963959E0,-4.464417696E-2,4.086542130E-2,3.104400635E-2
2.150756459E0,-2.303653955E-2,5.857563019E-2,-3.117752075E-2
2.155548959E0,-3.980576992E-3,4.570651054E-2,-8.620548248E-2
2.160341459E0,-2.237081528E-3,6.440210342E-2,-9.103012085E-2
2.165133959E0,1.062667370E-2,8.601140976E-2,-9.111881256E-2
2.169926459E0,8.258581161E-3,1.129298210E-1,-8.648490906E-2
2.174718959E0,7.576107979E-3,1.212384701E-1,-1.177368164E-1
2.179511511E0,-7.924437523E-3,1.203813553E-1,-1.250934601E-1
2.184304011E0,2.572894096E-3,1.055085659E-1,-1.253156662E-1
2.189096511E0,1.552873850E-2,6.458759308E-2,-9.693908691E-2
2.193889011E0,5.535078049E-2,9.578704834E-3,-1.164779663E-1
2.198681511E0,9.850358963E-2,-1.404571533E-2,-1.695652008E-1
2.203474011E0,1.091639400E-1,-4.680657387E-2,-1.940879822E-1
2.208266511E0,8.236366510E-2,-5.519652367E-2,-1.829319000E-1
2.213059011E0,5.839157104E-2,-6.548953056E-2,-1.600236893E-1
2.217851511E0,1.542770863E-2,-5.127096176E-2,-1.468811035E-1
2.222644011E0,3.325879574E-3,-1.992058754E-2,-1.290826797E-1
2.227436563E0,1.725298166E-2,2.369236946E-2,-1.209487915E-1
2.232229011E0,5.730128288E-2,3.092050552E-3,-1.081361771E-1
2.237021563E0,9.726822376E-2,2.602481842E-2,-1.241426468E-1
2.241814063E0,7.996678352E-2,2.322244644E-2,-1.689386368E-1
2.246606563E0,1.155511141E-1,2.826642990E-2,-2.353477478E-1
2.251399063E0,1.252251863E-1,3.874230385E-2,-2.540845871E-1
2.256191563E0,1.590662599E-1,4.250240326E-2,-2.299613953E-1
2.260984063E0,1.618419290E-1,7.060909271E-2,-1.606521606E-1
2.265776563E0,1.380438805E-1,1.086277962E-1,-7.963085175E-2
2.270569063E0,9.952151775E-2,1.110076904E-1,-1.790523529E-2
2.275361563E0,5.361342430E-2,1.278281212E-1,7.873535156E-3
2.280154063E0,7.223749161E-2,8.970427513E-2,1.927471161E-2
2.284946563E0,8.381313086E-2,6.592702866E-2,-7.549285889E-3
2.289739063E0,9.569990635E-2,2.313113213E-2,-1.525497437E-2
2.294531616E0,6.477516890E-2,-4.813671112E-4,1.047134399E-2
2.299324116E0,2.907556295E-2,-1.446175575E-2,1.704025269E-2
2.304116616E0,-3.064990044E-2,-6.865501404E-3,5.908012390E-2
2.308909116E0,-6.452465057E-2,-1.652717590E-3,6.760692596E-2
2.313701616E0,-1.180818677E-1,2.004718781E-2,9.990692139E-2
2.318494116E0,-1.199665070E-1,2.229356766E-2,1.083793640E-1
2.323286616E0,-1.059024334E-1,-1.952648163E-3,5.287933350E-2
2.328079116E0,-1.019139290E-1,-2.404904366E-2,1.935958862E-2
2.332871616E0,-9.594351053E-2,-5.113196373E-2,5.064010620E-4
2.337664116E0,-8.820599318E-2,-6.403875351E-2,3.296852112E-3
2.342456616E0,-7.154029608E-2,-4.634165764E-2,4.891872406E-2
2.347249116E0,-3.388565779E-2,-4.828023911E-2,8.245754242E-2
2.352041616E0,-3.608465195E-3,-5.794858932E-2,8.978366852E-2
2.356834116E0,3.150475025E-2,-6.571388245E-2,9.954357147E-2
2.361626668E0,6.191015244E-2,-8.103346825E-2,1.235675812E-1
2.366419168E0,6.618666649E-2,-9.429144859E-2,1.593589783E-1
2.371211668E0,4.688268900E-2,-7.697081566E-2,1.830778122E-1
2.376004168E0,6.609869003E-2,-6.485199928E-2,1.663112640E-1
2.380796668E0,1.071141958E-1,-5.306267738E-2,1.259670258E-1
2.385589168E0,7.487159967E-2,-4.374885559E-2,5.743026733E-2
2.390381668E0,5.316066742E-2,-1.283144951E-2,1.168251038E-3
2.395174168E0,1.702904701E-3,1.600384712E-2,-8.333301544E-2
2.399966668E0,2.954828739E-2,2.884483337E-2,-8.437061310E-2
2.404759168E0,3.385776281E-2,4.963731766E-2,-1.236639023E-1
2.409551668E0,4.546862841E-2,9.964871407E-2,-1.391763687E-1
2.414344168E0,3.589546680E-2,1.073856354E-1,-1.619405746E-1
2.419136720E0,8.686184883E-4,1.275599003E-1,-1.776237488E-1
2.423929220E0,3.457069397E-6,1.077818871E-1,-1.720314026E-1
2.428721720E0,2.346521616E-2,8.626246452E-2,-1.453094482E-1
2.433514220E0,5.657660961E-2,6.295824051E-2,-6.437492371E-2
2.438306720E0,4.213339090E-2,5.683612823E-2,8.648872375E-3
2.443099220E0,8.905649185E-3,5.809545517E-2,5.252933502E-2
2.447891720E0,-1.210999489E-2,4.496717453E-2,1.221857071E-1
2.452684220E0,-6.812453270E-3,3.407549858E-2,1.699781418E-1
2.457476720E0,-1.338684559E-2,3.721141815E-2,1.794948578E-1
2.462269220E0,-5.573689938E-3,3.528189659E-2,1.985044479E-1
2.467061720E0,-1.421153545E-2,3.784966469E-2,1.889448166E-1
2.471854220E0,1.316875219E-2,4.595041275E-3,1.581449509E-1
2.476646720E0,2.896541357E-2,7.222652435E-3,1.346845627E-1
2.481439220E0,2.858281136E-2,-2.331280708E-2,1.184806824E-1
2.486231772E0,3.105735779E-2,-2.965044975E-2,1.094408035E-1
2.491024272E0,2.996325493E-3,-3.337836266E-2,1.027822495E-1
2.495816772E0,-7.930576801E-3,-1.156806946E-3,6.997585297E-2
2.500609272E0,-1.629843116E-1,-1.932621002E-3,-1.255130768E-2
2.505401772E0,-1.386375427E-1,1.678061485E-2,2.649116516E-2
2.510194272E0,-5.748397112E-2,4.993796349E-2,-1.318740845E-2
2.514986772E0,-3.312230110E-3,9.748578072E-2,-7.543563843E-3
2.519779272E0,-3.318196535E-2,1.116559505E-1,1.939487457E-2
2.524571772E0,-8.251601458E-2,1.116003990E-1,1.054382324E-2
2.529364272E0,-6.106930971E-2,1.044678688E-1,-2.902793884E-2
2.534156772E0,-7.621657848E-2,6.895542145E-2,-1.838302612E-2
2.538949272E0,-8.752948046E-2,4.794955254E-2,1.835823059E-2
2.543741824E0,-9.278428555E-2,2.946639061E-2,4.776191711E-2
2.548534324E0,-9.188449383E-2,1.576733589E-2,1.295566559E-2
2.553326824E0,-5.152767897E-2,2.569317818E-2,1.652431488E-2
2.558119324E0,-3.597408533E-2,5.888247490E-2,5.581283569E-2
2.562911824E0,-2.595669031E-2,3.434872627E-2,1.020746231E-1
2.567704324E0,-4.510074854E-2,-2.135920525E-2,1.220340729E-1
2.572496824E0,-5.992341042E-2,-6.524085999E-2,8.979988098E-2
2.577289324E0,-7.267719507E-2,-1.090664864E-1,7.218265533E-2
2.582081824E0,-5.479049683E-2,-1.148645878E-1,4.295158386E-2
2.586874324E0,-5.871760845E-2,-1.018486023E-1,3.777217865E-2
2.591666824E0,-6.056290865E-2,-5.830740929E-2,1.373100281E-2
2.596459324E0,-1.100947261E-1,-1.986289024E-2,-3.619861603E-2
2.601251876E0,-1.000889540E-1,-1.017260551E-2,-6.910133362E-2
2.606044324E0,-8.582440019E-2,1.137280464E-2,-7.324981689E-2
2.610836876E0,-8.870971203E-2,-1.697373390E-2,-6.313419342E-2
2.615629376E0,-6.834495068E-2,-2.598309517E-2,-4.361152649E-2
2.620421876E0,-9.611505270E-2,-3.491377831E-2,-3.134059906E-2
2.625214376E0,-6.964236498E-2,-6.271600723E-2,-3.100967407E-2
2.630006876E0,-7.949376106E-2,-7.129263878E-2,-3.777122498E-2
2.634799376E0,-8.019953966E-2,-9.410715103E-2,-4.205417633E-2
2.639591876E0,-6.228196621E-2,-1.050217152E-1,-2.250862122E-2
2.644384376E0,-4.459822178E-2,-8.529210091E-2,2.069377899E-2
2.649176876E0,1.659035683E-3,-9.932994843E-2,4.701519012E-2
2.653969376E0,3.871583939E-2,-9.933948517E-2,2.333545685E-2
2.658761876E0,6.922811270E-2,-1.399626732E-1,1.410961151E-2
2.663554376E0,8.375412226E-2,-1.449620724E-1,2.634525299E-2
2.668346876E0,6.082224846E-2,-1.144907475E-1,4.559993744E-2
2.673139428E0,5.041074753E-2,-6.550860405E-2,5.523300171E-2
2.677931928E0,5.460423231E-2,-7.404971123E-2,2.684783936E-2
2.682724428E0,3.524041176E-2,-6.839513779E-2,-1.077556610E-2
2.687516928E0,-9.912073612E-3,-7.465577126E-2,-3.148269653E-2
2.692309428E0,-2.623641491E-2,-4.755640030E-2,-7.814025879E-2
2.697101928E0,-3.556281328E-2,-2.288198471E-2,-7.935714722E-2
2.701894428E0,-4.763525724E-2,2.792310715E-2,-7.822513580E-2
2.706686928E0,-3.411746025E-2,5.022215843E-2,-7.005214691E-2
2.711479428E0,-4.691421986E-3,6.800341606E-2,-5.490303040E-2
2.716271928E0,4.078191519E-2,7.886505127E-2,-1.859760284E-2
2.721064428E0,5.504494905E-2,8.991360664E-2,1.732540131E-2
2.725856928E0,7.888078690E-2,6.558299065E-2,2.437782288E-2
2.730649428E0,7.200706005E-2,3.450679779E-2,6.927013397E-2
2.735441980E0,9.867799282E-2,6.553006172E-2,8.050918579E-2
2.740234480E0,9.457802773E-2,5.591607094E-2,8.927249908E-2
2.745026980E0,7.662099600E-2,6.298112869E-2,8.607959747E-2
2.749819480E0,5.686128139E-2,5.325865746E-2,6.630802155E-2
2.754611980E0,5.173271894E-2,2.456998825E-2,4.195594788E-2
2.759404480E0,3.485983610E-2,3.261089325E-3,3.440666199E-2
2.764196980E0,3.217345476E-2,-2.261590958E-2,2.930641174E-2
2.768989480E0,-6.437540054E-3,-1.978993416E-2,3.138542175E-2
2.773781980E0,-4.290962219E-2,2.089142799E-2,4.062938690E-2
2.778574480E0,-5.593955517E-2,2.312755585E-2,-1.181983948E-2
2.783366980E0,-5.046832561E-2,1.803112030E-2,-4.950237274E-2
2.788159480E0,-3.850400448E-2,-6.236553192E-3,-3.218841553E-2
2.792951980E0,-1.082777977E-3,9.749412537E-3,-3.037452698E-3
2.797744480E0,1.437938213E-2,7.274270058E-2,-5.707263947E-2
2.802537032E0,6.742221117E-2,6.387114525E-2,-4.889869690E-2
2.807329532E0,1.341267824E-1,4.789304733E-2,-4.076671600E-2
2.812122032E0,1.626768708E-1,1.557207108E-2,-8.971118927E-2
2.816914532E0,1.870785952E-1,4.324197769E-2,-1.787538528E-1
2.821707032E0,1.860272884E-1,9.274625778E-2,-2.364645004E-1
2.826499532E0,1.904063225E-1,1.261234283E-1,-2.251768112E-1
2.831292032E0,1.881190538E-1,1.175484657E-1,-2.143039703E-1
2.836084532E0,1.552931070E-1,1.148025990E-1,-2.085695267E-1
2.840877032E0,1.370882988E-1,1.010942459E-1,-1.817789078E-1
2.845669532E0,1.022907495E-1,9.054780006E-2,-9.369087219E-2
2.850462032E0,6.740760803E-2,6.849598885E-2,-1.112842560E-2
2.855254532E0,2.757382393E-2,3.228926659E-2,6.843852997E-2
2.860047032E0,3.745871782E-2,8.184909821E-4,1.427164078E-1
2.864839532E0,1.835232973E-2,-4.053616524E-2,1.952352524E-1
2.869632084E0,3.461611271E-2,-5.393695831E-2,2.309722900E-1
2.874424584E0,1.031684875E-2,-5.878973007E-2,2.572193146E-1
2.879217084E0,7.005268335E-2,-8.631992340E-2,3.025465012E-1
2.884009584E0,1.594780087E-1,-1.532452106E-1,3.715534210E-1
2.888802084E0,2.150573134E-1,-2.759759426E-1,4.307994843E-1
2.893594584E0,2.752167583E-1,-2.973244190E-1,4.921884537E-1
2.898387084E0,2.616942525E-1,-2.511570454E-1,4.417486191E-1
2.903179584E0,2.487165928E-1,-1.542844772E-1,3.538722992E-1
2.907972084E0,1.013932824E-1,-1.203382015E-1,1.693487167E-1
2.912764584E0,8.826112747E-2,-1.361413002E-1,1.617116928E-1
2.917557084E0,1.552745700E-1,-1.271209717E-1,6.836223602E-2
2.922349584E0,1.186912656E-1,-9.764122963E-2,-3.655719757E-2
2.927142084E0,2.388018370E-2,2.362179756E-2,-5.333042145E-2
2.931934636E0,-3.688955307E-2,1.361291409E-1,-6.091690063E-2
2.936727136E0,-2.409493923E-2,2.255196571E-1,-3.557682037E-2
2.941519636E0,1.122957468E-2,2.418174744E-1,1.779460907E-2
2.946312136E0,4.497832060E-2,2.399451733E-1,5.632686615E-2
2.951104636E0,6.505209208E-2,1.959323883E-1,9.449577332E-2
2.955897136E0,6.908532977E-2,1.786932945E-1,8.728790283E-2
2.960689636E0,3.348457813E-2,1.663153172E-1,1.134729385E-1
2.965482136E0,1.313549280E-2,1.585118771E-1,1.491050720E-1
2.970274636E0,5.486905575E-3,1.668395996E-1,1.728219986E-1
2.975067136E0,-3.817826509E-3,1.625778675E-1,1.918678284E-1
2.979859636E0,-3.851276636E-2,1.552486420E-1,1.778240204E-1
2.984652136E0,-3.668016195E-2,1.613807678E-1,1.618394852E-1
2.989444636E0,-8.871042728E-2,1.572513580E-1,1.367731094E-1
2.994237136E0,-1.206214428E-1,1.384286880E-1,8.127975464E-2
2.999029636E0,-1.632592082E-1,1.550343037E-1,-4.440307617E-3
3.003822136E0,-1.642209589E-1,1.119673252E-1,-4.423713684E-2
3.008614688E0,-1.734920442E-1,9.989452362E-2,-8.358764648E-2
3.013407188E0,-1.458952129E-1,7.117867470E-2,-9.878921509E-2
3.018199688E0,-9.113574028E-2,9.247541428E-2,-1.161661148E-1
3.022992188E0,-4.497009516E-2,8.983445168E-2,-1.214733124E-1
3.027784688E0,-5.188584328E-5,6.110167503E-2,-1.409225464E-1
3.032577188E0,3.678888083E-2,6.117510796E-2,-1.673202515E-1
3.037369688E0,4.925251007E-2,5.656147003E-2,-1.934881210E-1
3.042162188E0,6.387910247E-2,2.607798576E-2,-2.123584747E-1
3.046954688E0,6.429970264E-2,-6.247520447E-3,-2.667427063E-1
3.051747188E0,5.315929651E-2,-2.372789383E-2,-2.756900787E-1
3.056539688E0,3.765386343E-2,-6.690025330E-2,-2.537984848E-1
3.061332188E0,3.205007315E-2,-8.589959145E-2,-2.178821564E-1
3.066124688E0,-1.590609550E-3,-9.305524826E-2,-2.083320618E-1
3.070917241E0,-3.227204084E-2,-9.095764160E-2,-2.059087753E-1
3.075709741E0,-7.198816538E-2,-8.458852768E-2,-2.152481079E-1
3.080502241E0,-1.065197587E-1,-1.073033810E-1,-2.196092606E-1
3.085294741E0,-1.526256502E-1,-6.140160561E-2,-2.499227524E-1
3.090087241E0,-1.392307281E-1,-1.276097298E-1,-2.514343262E-1
3.094879741E0,-9.035387635E-2,-1.719608307E-1,-2.861347198E-1
3.099672241E0,-2.472043037E-2,-1.468648911E-1,-3.514976501E-1
3.104464741E0,2.472603321E-2,-1.024155617E-1,-4.355154037E-1
3.109257241E0,6.048840284E-2,-4.319882393E-2,-4.740591049E-1
3.114049741E0,1.062137485E-1,-1.415491104E-2,-4.580793381E-1
3.118842241E0,1.333276629E-1,-6.957054138E-4,-4.094161987E-1
3.123634741E0,1.561939716E-1,2.336978912E-2,-3.473110199E-1
3.128427241E0,1.559145451E-1,1.741743088E-2,-2.908077240E-1
3.133219741E0,1.515789628E-1,7.657051086E-3,-2.208299637E-1
3.138012241E0,1.025896668E-1,-1.557874680E-2,-1.326665878E-1
3.142804793E0,4.946762323E-2,-1.212549210E-2,-5.247688293E-2
3.147597293E0,4.434996843E-2,-1.102399826E-2,8.045196533E-3
3.152389793E0,3.435730934E-3,-7.694005966E-3,9.185028076E-2
3.157182293E0,9.763360023E-3,1.664686203E-2,1.798276901E-1
3.161974793E0,-1.064020395E-2,8.066844940E-2,2.411394119E-1
3.166767293E0,9.109735489E-3,1.073098183E-2,3.021154404E-1
3.171559793E0,3.589290380E-2,-7.115411758E-2,3.342905045E-1
3.176352293E0,7.701796293E-2,-1.198370457E-1,3.568801880E-1
3.181144793E0,1.015545130E-1,-1.165745258E-1,3.533430099E-1
3.185937293E0,9.305560589E-2,-1.021323204E-1,3.571090698E-1
3.190729793E0,6.852108240E-2,-6.707906723E-2,3.206453323E-1
3.195522293E0,3.760141134E-2,-1.147079468E-2,2.608604431E-1
3.200314793E0,1.510977745E-4,-6.554126740E-3,2.064085007E-1
3.205107293E0,1.068413258E-2,7.608175278E-3,1.927919388E-1
3.209899845E0,4.720568657E-3,1.915383339E-2,1.318521500E-1
3.214692345E0,-1.529145241E-2,4.728031158E-2,7.376670837E-2
3.219484845E0,-3.746020794E-2,5.868625641E-2,3.985691071E-2
3.224277345E0,-1.220333576E-2,6.076383591E-2,5.125713348E-2
3.229069845E0,6.700754166E-4,8.922863007E-2,5.063533783E-2
3.233862345E0,6.098628044E-3,8.928298950E-2,1.198387146E-2
3.238654845E0,8.877754211E-3,9.675335884E-2,-9.801864624E-3
3.243447345E0,-5.317926407E-4,9.022498131E-2,2.310657501E-2
3.248239845E0,1.349002123E-2,1.029243469E-1,6.995010376E-2
3.253032345E0,2.227336168E-2,9.887838364E-2,1.093168259E-1
3.257824845E0,5.207300186E-2,9.472799301E-2,1.484098434E-1
3.262617345E0,1.975250244E-2,8.324337006E-2,1.397991180E-1
3.267409845E0,1.397484541E-2,6.920671463E-2,8.149623871E-2
3.272202345E0,2.734267712E-2,6.445455551E-2,9.731864929E-2
3.276994845E0,6.881952286E-2,3.571367264E-2,1.534481049E-1
3.281787345E0,8.124446869E-2,1.863455772E-2,1.689071655E-1
3.286579897E0,7.466477156E-2,3.221654892E-2,6.093120575E-2
3.291372397E0,3.738701344E-2,8.106279373E-2,1.797676086E-2
3.296164897E0,2.630454302E-2,7.965660095E-2,2.760219574E-2
3.300957397E0,1.730102301E-2,4.502153397E-2,-7.905960083E-3
3.305749897E0,2.206641436E-2,3.697443008E-2,-5.737304688E-2
3.310542397E0,3.549677134E-2,2.926635742E-2,-7.797813416E-2
3.315334897E0,5.739778280E-2,5.511212349E-2,-8.181095123E-2
3.320127397E0,6.158035994E-2,5.495500565E-2,-8.088970184E-2
3.324919897E0,6.502175331E-2,1.706457138E-2,-6.338024139E-2
3.329712397E0,1.037499905E-1,1.033854485E-2,-6.023120880E-2
3.334504897E0,1.232084632E-1,-5.873203278E-3,-8.794021606E-2
3.339297397E0,1.525054574E-1,-3.618550301E-2,-1.225671768E-1
3.344089897E0,1.441411972E-1,-6.869482994E-2,-1.070899963E-1
3.348882397E0,1.079427600E-1,-7.966589928E-2,-1.392126083E-1
3.353674897E0,1.010884047E-1,-4.540514946E-2,-1.972227097E-1
3.358467397E0,9.226453304E-2,-3.509497643E-2,-2.097053528E-1
3.363259897E0,6.454902887E-2,-3.427100182E-2,-2.149906158E-1
3.368052397E0,6.312167645E-2,-3.098773956E-2,-2.297439575E-1
3.372844949E0,5.439883471E-2,-3.000903130E-2,-2.443866730E-1
3.377637449E0,2.896237373E-2,-2.659368515E-2,-2.565374374E-1
3.382429949E0,1.996552944E-2,-3.502273560E-2,-2.282323837E-1
3.387222449E0,2.960729599E-2,-6.238150597E-2,-2.096176147E-1
3.392014949E0,8.173727989E-2,-8.962035179E-2,-1.721315384E-1
3.396807449E0,1.502526999E-1,-1.310727596E-1,-2.416954041E-1
3.401599949E0,1.302005649E-1,-9.650659561E-2,-9.228610992E-2
3.406392449E0,1.454474330E-1,-4.581856728E-2,-9.756088257E-4
3.411184949E0,1.435973048E-1,-9.824275970E-3,-5.301475525E-3
3.415977449E0,1.463473439E-1,-4.993462563E-2,-4.757690430E-2
3.420769949E0,1.346018314E-1,-6.566548347E-2,-7.532501221E-2
3.425562449E0,9.404569864E-2,-5.468153954E-2,-2.463054657E-2
3.430354949E0,5.806946754E-2,-3.149318695E-2,2.082252502E-2
3.435147449E0,2.918183804E-3,-1.518082619E-2,5.633449554E-2
3.439940001E0,-2.430379391E-3,8.475542068E-3,7.013893127E-2
3.444732501E0,-1.538258791E-2,1.318049431E-2,1.051740646E-1
3.449525001E0,6.789267063E-3,1.793694496E-2,1.399488449E-1
3.454317501E0,3.556597233E-2,-1.185178757E-3,1.792459488E-1
3.459110001E0,5.011963844E-2,-8.220982552E-2,1.542367935E-1
3.463902501E0,4.349786043E-2,-5.150914192E-2,1.864957809E-1
3.468695001E0,3.017902374E-2,-2.705574036E-3,2.376155853E-1
3.473487501E0,-4.663562775E-2,3.307032585E-2,2.623796463E-1
3.478280001E0,-5.590838194E-2,3.697180748E-2,2.443876266E-1
3.483072501E0,-4.774379730E-2,9.341239929E-3,1.863203049E-1
3.487865001E0,-4.155296087E-2,1.711344719E-2,1.572875977E-1
3.492657501E0,-1.839578152E-2,2.461171150E-2,1.142845154E-1
3.497450001E0,-4.723459482E-2,3.920555115E-2,6.447696686E-2
3.502242501E0,-2.334600687E-2,4.199266434E-2,5.060672760E-2
3.507035001E0,-5.148416758E-2,3.794097900E-2,1.143455505E-3
3.511827501E0,-7.914149761E-2,4.156112671E-2,-1.959514618E-2
3.516620001E0,-7.336753607E-2,7.190656662E-2,-4.270935059E-2
3.521412553E0,-6.539022923E-2,8.606696129E-2,-7.054805756E-2
3.526205001E0,-1.970916986E-2,1.054208279E-1,-3.422069550E-2
3.530997553E0,3.034216166E-2,7.743573189E-2,1.121997833E-2
3.535790053E0,3.752535582E-2,2.832102776E-2,3.965282440E-2
3.540582553E0,5.228888988E-2,-1.821494102E-2,6.310939789E-2
3.545375053E0,4.850506783E-2,-3.855919838E-2,6.504440308E-2
3.550167553E0,4.278945923E-2,-4.237031937E-2,8.834934235E-2
3.554960053E0,8.790791035E-3,-3.696179390E-2,9.966564178E-2
3.559752553E0,1.060611010E-2,-2.715134621E-2,1.299571991E-1
3.564545053E0,-3.289240599E-2,-4.138994217E-2,1.197452545E-1
3.569337553E0,-4.774045944E-2,-4.393815994E-2,9.310626984E-2
3.574130053E0,-9.345382452E-2,-6.799221039E-2,2.878475189E-2
3.578922553E0,-1.272720098E-1,-6.810665131E-2,-2.785015106E-2
3.583715053E0,-1.257787347E-1,-7.763862610E-2,-3.177165985E-2
3.588507553E0,-9.152430296E-2,-5.617237091E-2,-3.088855743E-2
3.593300053E0,-6.719785929E-2,-6.820726395E-2,-4.657840729E-2
3.598092553E0,-6.685453653E-2,-8.497714996E-2,-3.600406647E-2
3.602885053E0,-3.333050013E-2,-8.277440071E-2,1.961421967E-2
3.607677553E0,2.850341797E-2,-9.015440941E-2,2.257728577E-2
3.612470105E0,6.629461050E-2,-7.604885101E-2,3.971481323E-2
3.617262553E0,9.441602230E-2,-6.904530525E-2,6.615447998E-2
3.622055105E0,9.878301620E-2,-1.353790760E-1,7.566928864E-2
3.626847605E0,8.918905258E-2,-1.321573257E-1,6.129264832E-2
3.631640105E0,9.207564592E-2,-1.193003654E-1,2.320861816E-2
3.636432605E0,6.956171989E-2,-6.843113899E-2,2.091789246E-2
3.641225105E0,6.458050013E-2,-4.626226425E-2,6.360340118E-2
3.646017605E0,1.996481419E-2,-5.728316307E-2,7.020854950E-2
3.650810105E0,5.710905790E-2,-7.047605515E-2,6.716442108E-2
3.655602605E0,1.164305210E-2,-6.446051598E-2,5.691719055E-2
3.660395105E0,-2.101582289E-2,-8.212757111E-2,4.429817200E-2
3.665187605E0,-5.310684443E-2,-7.104015350E-2,5.307292938E-2
3.669980105E0,-1.038732529E-1,-4.577088356E-2,6.176090240E-2
3.674772605E0,-1.116979718E-1,-7.292723656E-2,5.853652954E-2
3.679565105E0,-1.129072905E-1,-6.422352791E-2,8.623313904E-2
3.684357605E0,-1.148641706E-1,-7.697439194E-2,8.056545258E-2
3.689150105E0,-1.342768073E-1,-3.762459755E-2,1.154298782E-1
3.693942605E0,-1.497184634E-1,-1.318860054E-2,1.407051086E-1
3.698735105E0,-1.658418179E-1,-2.014207840E-2,1.327266693E-1
3.703527605E0,-1.350616217E-1,-6.290817261E-2,1.083526611E-1
3.708320157E0,-1.100814939E-1,-6.037449837E-2,1.032876968E-1
3.713112657E0,-8.858221769E-2,-4.125785828E-2,1.102266312E-1
3.717905157E0,-6.108838320E-2,-4.130434990E-2,1.195907593E-1
3.722697657E0,-2.997332811E-2,-2.474188805E-2,1.123666763E-1
3.727490157E0,9.610295296E-3,-1.075530052E-2,1.171751022E-1
3.732282657E0,4.607033730E-2,5.279779434E-3,7.221984863E-2
3.737075157E0,7.259798050E-2,4.375457764E-3,5.618953705E-2
3.741867657E0,5.606317520E-2,-3.220438957E-2,6.169605255E-2
3.746660157E0,6.323087215E-2,-3.777408600E-2,6.010437012E-2
3.751452657E0,5.358469486E-2,-2.674460411E-2,4.907608032E-2
3.756245157E0,2.253913879E-2,-1.586174965E-2,2.631378174E-2
3.761037657E0,2.981364727E-2,-2.408075333E-2,1.374244690E-3
3.765830157E0,-6.120204926E-4,-6.296443939E-2,-4.477310181E-2
3.770622657E0,-1.374757290E-2,-4.921722412E-2,-6.924915314E-2
3.775415157E0,-1.928067207E-2,-4.017829895E-2,-8.647918701E-2
3.780207657E0,-8.283054829E-2,1.994848251E-3,-1.155710220E-1
3.785000157E0,-2.094994187E-1,3.408908844E-3,-2.817535400E-2
3.789792657E0,-2.054622173E-1,-7.586383820E-2,-5.529975891E-2
3.794585209E0,-1.378660202E-1,-7.381367683E-2,-5.603218079E-2
3.799377709E0,5.722987652E-2,-9.775710106E-2,-1.042356491E-1
3.804170209E0,1.164523363E-1,-8.826994896E-2,-1.260528564E-1
3.808962709E0,1.334807873E-1,-8.133220673E-2,-4.574775696E-2
3.813755209E0,1.749919653E-1,-1.244819164E-1,-3.023147583E-2
3.818547709E0,1.009181738E-1,-1.391425133E-1,-3.623104095E-2
3.823340209E0,1.633417606E-2,-5.427408218E-2,1.000499725E-2
3.828132709E0,-5.774378777E-2,5.578184128E-2,9.858512878E-2
3.832925209E0,-4.749453068E-2,1.244559288E-1,9.858417511E-2
3.837717709E0,-2.023445368E-1,1.047475338E-1,4.150199890E-2
3.842510209E0,-1.192238331E-1,-1.885557175E-2,7.267379761E-2
3.847302709E0,-6.626749039E-2,-6.279945374E-2,6.328392029E-2
3.852095209E0,5.637776852E-2,-4.907679558E-2,5.875396729E-2
3.856887709E0,6.632888317E-2,2.171754837E-2,5.421733856E-2
3.861680209E0,3.386187553E-2,7.053971291E-2,1.113758087E-1
3.866472709E0,4.247248173E-2,4.516124725E-2,1.324720383E-1
3.871265209E0,2.306473255E-2,7.977247238E-3,1.367559433E-1
3.876057709E0,3.749537468E-2,-3.613162041E-2,1.386070251E-1
3.880850209E0,6.419610977E-2,-1.415007114E-1,8.815479279E-2
3.885642709E0,5.074501038E-2,-1.012017727E-1,5.941295624E-2
3.890435209E0,-1.956045628E-2,1.473069191E-2,1.210727692E-1
3.895227709E0,-3.259348869E-2,2.750921249E-2,1.348371506E-1
3.900020209E0,-5.312538147E-2,3.754901886E-2,1.296405792E-1
3.904812709E0,-6.217241287E-2,3.767585754E-2,1.412591934E-1
3.909605261E0,-5.974102020E-2,1.867294312E-3,8.174896240E-2
3.914397761E0,-3.871381283E-2,-4.829621315E-2,-2.455997467E-2
3.919190261E0,-1.036924124E-1,3.941988945E-2,-5.395030975E-2
3.923982761E0,-1.400299072E-1,9.308409691E-2,-6.878089905E-2
3.928775261E0,-1.385010481E-1,9.413385391E-2,-8.581638336E-2
3.933567761E0,-9.961628914E-2,1.001648903E-1,-8.608436584E-2
3.938360261E0,-8.066511154E-2,8.754539490E-2,-1.433210373E-1
3.943152761E0,-1.282025576E-1,1.299631596E-1,-1.978178024E-1
3.947945261E0,-1.308270693E-1,1.250469685E-1,-1.902189255E-1
3.952737761E0,-3.476989269E-2,5.921387672E-2,-2.776679993E-1
3.957530261E0,1.019752026E-2,8.255839348E-2,-3.147220612E-1
3.962322761E0,2.895462513E-2,6.859183311E-2,-2.591915131E-1
3.967115261E0,6.445050240E-2,7.446813583E-2,-2.067365646E-1
3.971907761E0,7.624387741E-2,7.139277458E-2,-2.023782730E-1
3.976700261E0,4.070949554E-2,3.327584267E-2,-1.483974457E-1
3.981492761E0,7.947921753E-3,-8.817672729E-3,-1.258478165E-1
3.986285261E0,-3.119230270E-3,-1.689696312E-2,-1.012411118E-1
3.991077761E0,-1.881265640E-2,-2.215647697E-2,-6.033134460E-2
3.995870261E0,-1.057267189E-2,-8.167338371E-2,-5.068969727E-2
4.000662761E0,-4.501533508E-2,-4.565191269E-2,-4.117202759E-2
4.005455261E0,-6.499373913E-2,6.655454636E-3,1.337242126E-2
4.010247761E0,-6.583142281E-2,2.513504028E-2,1.531219482E-2
4.015040261E0,-6.909513474E-2,7.735490799E-3,5.421638489E-3
4.019832761E0,-3.436362743E-2,2.290725708E-3,-2.334690094E-2
4.024625261E0,1.440954208E-2,-1.267290115E-2,-4.000186920E-2
4.029417761E0,2.987515926E-2,-3.942704201E-2,-5.891609192E-2
4.034210313E0,1.714551449E-2,-7.086658478E-2,-9.666442871E-2
4.039002761E0,-2.119123936E-2,-8.565521240E-2,-7.476711273E-2
4.043795313E0,-1.160204411E-2,-9.349346161E-2,-5.298900604E-2
4.048587813E0,2.626824379E-2,-7.072925568E-2,-2.417087555E-2
4.053380313E0,3.497576714E-2,-4.834866524E-2,2.824783325E-2
4.058172813E0,3.838276863E-2,-1.926422119E-4,3.525733948E-2
4.062965313E0,2.205705643E-2,1.426887512E-2,2.335739136E-2
4.067757813E0,9.612441063E-3,-6.944179535E-3,2.209663391E-3
4.072550313E0,-4.667985439E-2,-1.126384735E-2,-3.283786774E-2
4.077342813E0,-5.648696423E-2,-3.503561020E-3,-6.504154205E-2
4.082135313E0,-8.692777157E-2,2.097821236E-2,-4.454612732E-2
4.086927813E0,-5.759871006E-2,3.617715836E-2,-4.059410095E-2
4.091720313E0,-6.673967838E-2,6.605768204E-2,-5.300807953E-2
4.096512813E0,-4.769611359E-2,9.868764877E-2,-1.101102829E-1
4.101305313E0,-6.692337990E-2,1.031694412E-1,-1.806898117E-1
4.106097813E0,-3.342616558E-2,6.314444542E-2,-2.741937637E-1
4.110890313E0,-1.299949884E-1,1.473798752E-1,-2.385892868E-1
4.115682813E0,-1.132633686E-1,2.076723576E-1,-2.031021118E-1
4.120475313E0,-6.933736801E-2,1.752882004E-1,-1.606130600E-1
4.125267813E0,2.310812473E-2,8.647513390E-2,-1.704940796E-1
4.130060313E0,-3.848159313E-2,2.243494987E-1,-9.228610992E-2
4.134852813E0,-1.815212965E-1,3.997957706E-1,-2.214612961E-1
4.139645313E0,-5.130729675E-1,2.425539494E-1,-5.950231552E-1
4.144437813E0,-4.929394722E-1,2.323317528E-2,-2.328281403E-1
4.149230313E0,-4.379006624E-1,-2.512929440E-1,-1.349372864E-1
4.154022813E0,-8.510267735E-2,-4.526019096E-1,-1.377086639E-1
4.158815313E0,1.712625027E-1,-4.582185745E-1,-8.121013641E-2
4.163607813E0,3.342226744E-1,-3.504354954E-1,-6.255149841E-3
4.168400313E0,3.425886631E-1,-1.654841900E-1,7.747745514E-2
4.173192866E0,2.710945606E-1,-8.412122726E-3,1.533184052E-1
4.177985366E0,2.009067535E-1,5.932331085E-2,2.118692398E-1
4.182777813E0,1.813026667E-1,5.050516129E-2,2.580757141E-1
4.187570366E0,1.755545139E-1,2.629842758E-1,2.920341492E-1
4.192362866E0,1.532161236E-1,1.702656746E-1,2.046499252E-1
4.197155366E0,1.027014256E-1,5.177426338E-2,2.225179672E-1
4.201947866E0,8.342027664E-2,-5.923962593E-2,2.902631760E-1
4.206740366E0,1.878154278E-2,-1.251373291E-1,4.028701782E-1
4.211532866E0,-4.552376270E-2,-1.037480831E-1,4.484329224E-1
4.216325366E0,-3.593456745E-2,-7.184338570E-2,5.438051224E-1
4.221117866E0,8.774995804E-3,-9.829020500E-2,6.174144745E-1
4.225910366E0,1.042366028E-2,-1.257631779E-1,5.270109177E-1
4.230702866E0,-1.829302311E-2,-1.780180931E-1,4.186124802E-1
4.235495366E0,4.818201065E-2,-1.645245552E-1,4.442901611E-1
4.240287866E0,1.113476753E-1,-7.844328880E-2,4.439716339E-1
4.245080366E0,1.329355240E-1,-1.028561592E-2,4.178829193E-1
4.249872866E0,1.585466862E-1,4.968428612E-2,3.566894531E-1
4.254665366E0,2.194707394E-1,4.947495461E-2,2.700395584E-1
4.259457866E0,3.870687485E-1,-2.452325821E-2,2.576704025E-1
4.264250366E0,3.830277920E-1,-1.288924217E-1,2.192316055E-1
4.269042866E0,4.670977592E-1,-2.635147572E-1,3.306388855E-1
4.273835366E0,5.285336971E-1,-2.261674404E-1,4.792499542E-1
4.278627866E0,4.210329056E-1,-6.785678864E-2,3.014936447E-1
4.283420366E0,1.948466301E-1,-2.797627449E-2,2.342748642E-1
4.288212866E0,3.395771980E-2,2.181005478E-2,2.791633606E-1
4.293005366E0,-5.581879616E-2,4.577589035E-2,3.950748444E-1
4.297797866E0,-1.592206955E-1,-9.601116180E-4,4.725294113E-1
4.302590366E0,-2.173254490E-1,-7.253289223E-2,4.787063599E-1
4.307382866E0,-3.063775301E-1,-1.213102341E-1,3.311462402E-1
4.312175366E0,-2.886496782E-1,-4.968476295E-2,2.564735413E-1
4.316967866E0,-2.361824512E-1,1.160430908E-2,1.162519455E-1
4.321760366E0,-1.444373131E-1,4.657149315E-2,-6.070137024E-3
4.326552866E0,-1.580476761E-3,7.247805595E-2,-1.393013000E-1
4.331345366E0,7.840919495E-2,9.207558632E-2,-2.763929367E-1
4.336137866E0,1.268219948E-1,1.056051254E-1,-3.366670609E-1
4.340930366E0,1.587390900E-3,1.465387344E-1,-3.943901062E-1
4.345722866E0,-6.564855576E-2,1.529769897E-1,-4.021425247E-1
4.350515366E0,-8.971357346E-2,1.607975960E-1,-3.437128067E-1
4.355307866E0,-3.559923172E-2,1.532003880E-1,-2.551403046E-1
4.360100366E0,2.482104301E-2,1.419410706E-1,-1.793165207E-1
4.364892866E0,7.968330383E-2,1.505630016E-1,-1.208343506E-1
4.369685418E0,9.844803810E-2,1.428294182E-1,-9.610271454E-2
4.374477918E0,1.575627327E-1,1.495094299E-1,-8.585357666E-2
4.379270418E0,1.429879665E-1,9.904527664E-2,-9.944820404E-2
4.384062918E0,1.407544613E-1,7.499766350E-2,-1.224555969E-1
4.388855418E0,1.531691551E-1,6.529736519E-2,-1.595602036E-1
4.393647918E0,1.350831985E-1,5.806136131E-2,-2.059440613E-1
4.398440418E0,1.390266418E-1,4.391694069E-2,-2.402353287E-1
4.403232918E0,1.577343941E-1,6.573009491E-2,-2.601995468E-1
4.408025418E0,1.296465397E-1,8.062863350E-2,-3.135280609E-1
4.412817918E0,1.219258308E-1,9.801340103E-2,-3.169479370E-1
4.417610418E0,1.322193146E-1,7.501411438E-2,-3.136100769E-1
4.422402918E0,1.176764965E-1,7.119488716E-2,-2.774524689E-1
4.427195418E0,1.471743584E-1,3.438925743E-2,-2.514772415E-1
4.431987918E0,1.561093330E-1,-1.144456863E-2,-2.260494232E-1
4.436780418E0,1.517701149E-1,-6.628394127E-2,-2.011556625E-1
4.441572918E0,1.365711689E-1,-7.314252853E-2,-1.791372299E-1
4.446365418E0,1.105031967E-1,-8.697652817E-2,-1.599445343E-1
4.451157918E0,9.003305435E-2,-1.101047993E-1,-1.339979172E-1
4.455950418E0,4.183030128E-2,-1.258795261E-1,-1.131887436E-1
4.460742918E0,1.576423645E-3,-1.248855591E-1,-1.021757126E-1
4.465535418E0,-2.141118050E-2,-1.120297909E-1,-1.079587936E-1
4.470327918E0,-5.558824539E-2,-1.324989796E-1,-1.446828842E-1
4.475120418E0,-9.377765656E-2,-1.407861710E-1,-1.955080032E-1
4.479912918E0,-1.220808029E-1,-1.012935638E-1,-1.819334030E-1
4.484705418E0,-1.290297508E-1,-6.646823883E-2,-1.613960266E-1
4.489497918E0,-1.386754513E-1,-3.162026405E-2,-1.599855423E-1
4.494290418E0,-1.294329166E-1,5.784749985E-3,-2.345981598E-1
4.499082918E0,-1.416387558E-1,3.119945526E-3,-3.039951324E-1
4.503875418E0,-9.445571899E-2,-1.780152321E-2,-3.326559067E-1
4.508667918E0,-5.006408691E-2,-4.241633415E-2,-3.233413696E-1
4.513460418E0,-2.496790886E-2,-4.936933517E-2,-2.953662872E-1
4.518252918E0,2.138543129E-2,-7.437419891E-2,-2.394142151E-1
4.523045418E0,2.945232391E-2,-7.956004143E-2,-1.912317276E-1
4.527837918E0,5.884742737E-2,-9.615015984E-2,-1.245880127E-1
4.532630418E0,6.183218956E-2,-8.645725250E-2,-5.611515045E-2
4.537422918E0,1.240181923E-1,-9.607267380E-2,2.612495422E-2
4.542215418E0,1.307959557E-1,-6.561064720E-2,1.221055984E-1
4.547007918E0,1.536431313E-1,-4.538726807E-2,2.151908875E-1
4.551800418E0,1.567862034E-1,-5.422925949E-2,3.006534576E-1
4.556592918E0,1.857078075E-1,-4.222345352E-2,3.476839066E-1
4.561385418E0,2.285461426E-1,-2.853488922E-2,3.446750641E-1
4.566177918E0,2.475109100E-1,-3.213953972E-2,3.299160004E-1
4.570970418E0,2.691550255E-1,-4.333925247E-2,3.034162521E-1
4.575762918E0,2.271192074E-1,-1.924872398E-2,2.936859131E-1
4.580555418E0,1.551411152E-1,-1.224446297E-2,3.076734543E-1
4.585347918E0,1.080968380E-1,3.488063812E-2,3.166637421E-1
4.590140418E0,9.308147430E-2,5.311536789E-2,3.490800858E-1
4.594932918E0,1.479926109E-1,6.402373314E-2,3.524732590E-1
4.599725418E0,1.798787117E-1,6.770467758E-2,2.961807251E-1
4.604517918E0,1.819660664E-1,3.097891808E-2,2.447261810E-1
4.609310418E0,-8.315563202E-3,1.128714085E-1,1.741495132E-1
4.614102918E0,3.140211105E-3,-9.821176529E-3,1.703195572E-1
4.618895418E0,1.429736614E-1,-4.806923866E-2,3.107833862E-2
4.623687918E0,1.765720844E-1,-4.056692123E-2,1.825981140E-1
4.628480418E0,5.251026154E-2,2.816438675E-3,1.882495880E-1
4.633272918E0,-7.356548309E-2,4.123616219E-2,9.435462952E-2
4.638065418E0,-1.473948956E-1,9.126996994E-2,1.272850037E-1
4.642857918E0,-1.516098976E-1,3.054728508E-1,2.837467194E-1
4.647650418E0,-1.432907581E-1,3.412213326E-1,1.234817505E-1
4.652442918E0,-7.205009460E-2,5.939102173E-2,1.497716904E-1
4.657235418E0,1.445143223E-1,-1.388616562E-1,3.130912781E-2
4.662027918E0,6.729793549E-2,-1.596930027E-1,-1.810874939E-1
4.666820418E0,-6.648921967E-2,-7.100152969E-2,-1.733770370E-1
4.671612918E0,-1.096100807E-1,-3.488731384E-2,-7.784080505E-2
4.676405418E0,-1.818895340E-2,-1.500940323E-1,-3.994560242E-2
4.681197918E0,3.952341080E-1,-7.156517506E-1,-8.995628357E-2
4.685990418E0,3.964090347E-1,-7.829906940E-1,6.959819794E-2
4.690782918E0,2.045826912E-1,-5.509405136E-1,7.163429260E-2
4.695575418E0,-3.729033470E-2,-3.616702557E-1,-1.777410507E-1
4.700367918E0,-1.720697880E-1,-2.765247822E-1,-3.181467056E-1
4.705160418E0,-3.115088940E-1,-2.002437115E-1,-3.410520554E-1
4.709952918E0,-3.914463520E-1,-1.189880371E-1,-2.117376328E-1
4.714745418E0,-4.526314735E-1,-9.526729584E-3,-6.188964844E-2
4.719537918E0,-5.355746746E-1,2.809000015E-2,8.938026428E-2
4.724330418E0,-5.205140114E-1,7.490062714E-2,1.018362045E-1
4.729122918E0,-4.668326378E-1,1.136600971E-1,1.924562454E-1
4.733915418E0,-4.405086040E-1,8.003878593E-2,2.655029297E-1
4.738707918E0,-3.862416744E-1,7.889127731E-2,2.616615295E-1
4.743500418E0,-2.279143333E-1,4.343485832E-2,2.289056778E-1
4.748292918E0,-1.461610794E-1,3.081560135E-2,1.744203568E-1
4.753085418E0,-4.293465614E-2,-1.590394974E-2,1.837129593E-1
4.757877918E0,1.001555920E-1,-9.372496605E-2,2.373161316E-1
4.762670418E0,1.254703999E-1,-1.712037325E-1,2.804241180E-1
4.767462918E0,8.062267303E-2,-2.503418922E-1,2.943210602E-1
4.772255418E0,6.247687340E-2,-3.616133928E-1,3.150863647E-1
4.777047918E0,5.333471298E-2,-3.787057400E-1,3.523712158E-1
4.781840418E0,1.410818100E-2,-3.662215471E-1,4.086942673E-1
4.786632918E0,4.520416260E-4,-4.049282074E-1,5.626649857E-1
4.791425418E0,-8.155322075E-2,-4.182728529E-1,6.666936874E-1
4.796217918E0,-2.109065056E-1,-4.183489084E-1,7.523651123E-1
4.801010418E0,-3.306267262E-1,-3.651733398E-1,7.891826630E-1
4.805802918E0,-3.766207695E-1,-2.383627892E-1,8.535947800E-1
4.810595418E0,-3.254206181E-1,-1.316193342E-1,9.406652451E-1
4.815387918E0,-2.363717556E-1,6.952047348E-3,9.385585785E-1
4.820180418E0,-1.396033764E-1,1.127474308E-1,9.094696045E-1
4.824972918E0,8.677339554E-2,2.122721672E-1,8.817996979E-1
4.829765418E0,2.240040302E-1,2.625215054E-1,9.954204559E-1
4.834557918E0,4.234762192E-1,2.946023941E-1,8.715229034E-1
4.839350418E0,6.143126488E-1,3.612092733E-1,7.419109344E-1
4.844142918E0,8.789639473E-1,3.767589331E-1,4.232873917E-1
4.848935418E0,1.026903391E0,2.938419580E-1,3.103370667E-1
4.853727918E0,9.920160770E-1,3.463311195E-1,1.134319305E-1
4.858520418E0,9.218759537E-1,5.149248838E-1,-1.081199646E-1
4.863312918E0,8.555331230E-1,4.949042797E-1,-2.263555527E-1
4.868105418E0,8.141660690E-1,4.391896725E-1,-2.064647675E-1
4.872897918E0,8.086550236E-1,4.049990177E-1,-1.323871613E-1
4.877690418E0,8.092875481E-1,4.180740118E-1,8.358955383E-2
4.882482918E0,7.581350803E-1,3.974510431E-1,3.196020126E-1
4.887275418E0,7.144515514E-1,3.432587385E-1,4.736728668E-1
4.892067918E0,6.656680107E-1,2.627011538E-1,6.203403473E-1
4.896860418E0,5.227243900E-1,2.059235573E-1,8.171119690E-1
4.901652918E0,3.445537090E-1,1.319061518E-1,1.118687630E0
4.906445418E0,-3.738045692E-2,1.514683962E-1,1.334648132E0
4.911237918E0,-4.083232880E-1,4.203937054E-1,1.404216766E0
4.916030418E0,1.115770340E-1,4.348000288E-1,9.844951630E-1
4.920822918E0,8.573868275E-1,-1.511719227E-1,4.567794800E-1
4.925615418E0,2.362100840E0,-6.563166976E-1,-3.061784267E0
4.930407918E0,-1.800630093E-1,-1.812420368E0,-4.605043411E1
4.935200418E0,9.507751465E-2,-1.242988110E-1,1.582670498E1
4.939992918E0,-1.646604538E-1,2.838840961E0,1.270744133E1
4.944785418E0,-1.450984001E0,1.222602844E0,4.417218208E0
4.949577918E0,-1.198365688E0,-5.878492594E-1,3.186276436E0
4.954370418E0,-7.225441933E-1,-2.829908729E-1,5.991458893E-1
4.959162918E0,-3.210194111E-1,-1.049757719E0,2.470197678E-1
4.963955418E0,-2.278065681E-2,-1.329363585E0,8.022603989E-1
4.968747918E0,1.684660912E-1,-1.206558347E0,1.597249031E0
4.973540418E0,2.093548775E-1,-1.298919678E0,2.109369278E0
4.978332918E0,1.197960377E-1,-1.323609352E0,1.515878677E0
4.983125418E0,1.935319901E-1,-1.309010863E0,7.727489471E-1
4.987917918E0,3.387830257E-1,-1.283316970E0,4.270629883E-1
4.992710418E0,4.538230896E-1,-1.094576955E0,2.899847031E-1
4.997502918E0,3.471705914E-1,-1.040569067E0,3.119745255E-1
5.002295418E0,1.938741207E-1,-9.909392595E-1,2.760095596E-1
5.007087918E0,6.404566765E-2,-9.953131676E-1,1.715278625E-2
5.011880418E0,-1.633608341E-1,-9.812135100E-1,-2.995471954E-1
5.016672918E0,-3.231129646E-1,-8.492060900E-1,-1.221933365E0
5.021465418E0,-4.400506020E-1,-7.985494137E-1,-3.513022423E0
5.026257918E0,-6.030375957E-1,-8.424233794E-1,-4.830925465E0
5.031050418E0,-6.160792112E-1,-3.101569414E-1,-6.031274796E-1
5.035842918E0,-6.365207434E-1,2.595947981E-1,1.615613937E0
5.040635418E0,-7.619661689E-1,3.726212978E-1,1.449418068E0
5.045427918E0,-9.024311900E-1,3.580110073E-1,2.765254974E-1
5.050220418E0,-9.284026027E-1,1.163734198E-1,-6.837596893E-1
5.055012918E0,-7.588024139E-1,-8.167517185E-2,-9.561386108E-1
5.059805418E0,-6.465036273E-1,-1.748093367E-1,-1.251159668E0
5.064597918E0,-6.560611129E-1,-9.146511555E-2,-1.506563187E0
5.069390418E0,-6.110535264E-1,-2.298331261E-2,-1.602766037E0
5.074182918E0,-2.468494177E-1,-7.251739502E-3,-1.549462318E0
5.078975418E0,2.932273746E-1,1.004934311E-3,-1.411327362E0
5.083767918E0,7.905755043E-1,2.280282974E-2,-1.389184952E0
5.088560418E0,1.198569298E0,7.946968079E-2,-1.569005013E0
5.093352918E0,1.460183144E0,1.109170914E-2,-2.084397316E0
5.098145418E0,1.279090762E0,-6.434702873E-2,-2.714868546E0
5.102937918E0,6.486754417E-1,-6.171834469E-2,-3.306849957E0
5.107730366E0,3.135065362E-2,1.166993380E-1,-3.549107075E0
5.112522866E0,-7.832841873E-1,4.708036184E-1,-3.613703728E0
5.117315418E0,-1.412508130E0,8.386335373E-1,-3.524320602E0
5.122107866E0,-1.803098679E0,7.447971106E-1,-2.845548153E0
5.126900418E0,-1.944424391E0,4.359883070E-1,-2.318347454E0
5.131692866E0,-1.769624591E0,-7.063114643E-2,-3.941515446E0
5.136485366E0,-1.123689890E0,-6.888230443E-1,-6.175861359E0
5.141277866E0,-5.012470484E-1,-8.999406695E-1,-6.793515682E0
5.146070366E0,-1.284017563E-1,-7.337415814E-1,-7.433427811E0
5.150862866E0,2.426466942E-1,-8.298819065E-1,-7.438689232E0
5.155655366E0,9.796147346E-1,-7.385623455E-1,-4.548881054E0
5.160447866E0,2.048707962E0,-4.864423871E-1,4.372603416E0
5.165240366E0,2.858386755E0,-2.163767815E-1,8.122543335E0
5.170032866E0,3.639035463E0,-1.759842634E-1,5.566989899E0
5.174825366E0,4.218400002E0,5.745065212E-2,9.054038048E0
5.179617866E0,4.838537693E0,3.711485863E-1,1.192191315E1
5.184410366E0,5.654242516E0,7.201620340E-1,1.198863220E1
5.189202866E0,5.463996887E0,1.114692926E0,8.696262360E0
5.193995366E0,2.731037855E0,1.371688604E0,4.769631386E0
5.198787866E0,-1.325060368E0,1.505336881E0,1.984553337E0
5.203580366E0,-2.478290796E0,1.911695957E0,5.020313263E-1
5.208372866E0,-2.883821249E0,2.111042976E0,-4.189586639E-2
5.213165366E0,-2.375802755E0,6.304947138E-1,-3.546648026E-1
5.217957866E0,-1.814864635E0,1.667710543E0,3.251687050E0
5.222750366E0,-1.871517658E0,1.440603375E0,8.393926620E-1
5.227542866E0,-1.664185047E0,7.480635643E-1,3.366756439E-1
5.232335366E0,-1.487941027E0,-1.520690918E-1,-7.704677582E-1
5.237127866E0,-1.392649174E0,-1.019132853E0,-1.186828613E0
5.241920366E0,-1.179019451E0,-1.579476237E0,-1.344618797E0
5.246712866E0,-7.176704407E-1,-1.933894753E0,-1.657979488E0
5.251505366E0,-2.059559822E-1,-2.124514580E0,-2.037538528E0
5.256297866E0,1.836926937E-1,-2.318006516E0,-2.188016415E0
5.261090366E0,5.109083652E-1,-2.143915176E0,-2.010582924E0
5.265882866E0,5.771479607E-1,-1.980908155E0,-1.502275467E0
5.270675366E0,4.218337536E-1,-1.748416543E0,-1.011460304E0
5.275467866E0,8.368659019E-2,-1.597530961E0,-7.163867950E-1
5.280260366E0,-7.389690876E-1,-1.685594082E0,-5.157775879E-1
5.285052866E0,-1.375206232E0,-1.822998762E0,-4.616107941E-1
5.289845366E0,-1.596070528E0,-1.839695215E0,-7.632083893E-1
5.294637866E0,-1.847030401E0,-1.705102444E0,-8.099813461E-1
5.299430366E0,-2.187602997E0,-1.362237096E0,-1.134301186E0
5.304222866E0,-2.309487343E0,-9.562094212E-1,-1.649291515E0
5.309015366E0,-2.377917767E0,-2.497205138E-1,-1.601803303E0
5.313807866E0,-2.365533829E0,6.375232935E-1,-1.641721249E0
5.318600366E0,-2.168468952E0,8.349094391E-1,-1.641118526E0
5.323392866E0,-2.104265213E0,6.892319322E-1,-1.388394833E0
5.328185313E0,-1.688064098E0,8.871548176E-1,-1.192742825E0
5.332977813E0,-8.665742874E-1,9.023085833E-1,-1.046787739E0
5.337770313E0,-4.424285889E-2,8.633360863E-1,-7.775783539E-1
5.342562813E0,6.843581200E-1,8.461005092E-1,-3.215107918E-1
5.347355313E0,1.301969528E0,7.759566307E-1,1.012148857E-1
5.352147813E0,1.728921413E0,7.648366690E-1,6.624770164E-1
5.356940313E0,1.973795891E0,7.695789337E-1,1.249382973E0
5.361732813E0,2.033185005E0,9.268221259E-1,1.828107834E0
5.366525313E0,1.762881756E0,1.199024796E0,2.336526871E0
5.371317813E0,1.179479599E0,1.459126711E0,2.591437340E0
5.376110313E0,4.141917229E-1,1.349792719E0,2.512847900E0
5.380902813E0,-3.093647957E-1,1.112700582E0,2.056312561E0
5.385695313E0,-7.536425591E-1,9.348558187E-1,1.426043987E0
5.390487813E0,-8.148493767E-1,7.332998514E-1,7.787761688E-1
5.395280313E0,-8.594288826E-1,5.347155333E-1,1.668629646E-1
5.400072813E0,-1.059062004E0,3.454963565E-1,-6.932992935E-1
5.404865313E0,-1.218246937E0,9.064418823E-2,-1.206511021E0
5.409657813E0,-1.244182587E0,-2.456718087E-1,-2.020439625E0
5.414450313E0,-9.856615067E-1,-6.146384478E-1,-2.461639166E0
5.419242813E0,-3.238072395E-1,-9.499093294E-1,-2.537451029E0
5.424035313E0,4.342484474E-1,-1.232865691E0,-2.401559353E0
5.428827813E0,1.146456242E0,-1.306546807E0,-2.054776430E0
5.433620313E0,1.644749641E0,-1.036355615E0,-1.669861078E0
5.438412813E0,1.704102993E0,-3.298867345E-1,-1.586405039E0
5.443205313E0,1.734903336E0,3.356040120E-1,-1.238723755E0
5.447997813E0,1.773849010E0,8.747205138E-1,-6.242861748E-1
5.452790313E0,1.855587482E0,1.180407047E0,-9.880256653E-2
5.457582761E0,1.754563332E0,1.501546860E0,2.933440208E-1
5.462375261E0,1.547001362E0,1.577484846E0,4.388341904E-1
5.467167761E0,1.139391899E0,1.640164018E0,5.301694870E-1
5.471960261E0,7.728261948E-1,1.374545455E0,4.915027618E-1
5.476752761E0,3.653059006E-1,8.744058013E-1,5.281682014E-1
5.481545261E0,-1.276082993E-1,2.546433210E-1,1.570183754E0
5.486337761E0,-7.404155731E-1,-1.598993540E-1,1.102402210E0
5.491130261E0,-6.638536453E-1,-7.413871288E-1,-3.124845028E-1
5.495922761E0,3.257017136E-1,-1.097213268E0,-1.856016397E0
5.500715261E0,4.784793854E-1,-1.233462811E0,-2.873031378E0
5.505507761E0,-9.029769897E-2,-9.954016209E-1,-3.624440908E0
5.510300261E0,-8.377952576E-1,-7.349922657E-1,-3.568316936E0
5.515092761E0,-1.511992455E0,-6.336401701E-1,-2.932596207E0
5.519885261E0,-1.964114189E0,-5.039970875E-1,-2.482971907E0
5.524677761E0,-2.094367027E0,-4.069122672E-1,-2.305079222E0
5.529470261E0,-1.893819809E0,-3.792435527E-1,-2.610961437E0
5.534262761E0,-1.389198303E0,-3.173943162E-1,-3.122188568E0
5.539055261E0,-8.375759125E-1,2.734780312E-3,-3.981238365E0
5.543847761E0,-4.758110046E-1,2.761692405E-1,-4.057947159E0
5.548640209E0,-6.762027740E-1,8.375251889E-1,-4.957074642E0
5.553432761E0,-8.692426682E-1,1.187428594E0,-3.838580132E0
5.558225209E0,-1.075830460E0,1.127585649E0,-2.548782587E0
5.563017709E0,-5.326004028E-1,5.860687494E-1,-1.019231319E0
5.567810209E0,8.857207298E-1,-8.151465654E-2,4.517097473E-1
5.572602709E0,1.254049301E0,-5.765538216E-1,1.193260670E0
5.577395209E0,1.338740349E0,-9.310740232E-1,1.977981567E0
5.582187709E0,1.110538483E0,-7.873209715E-1,2.026978016E0
5.586980209E0,5.695118904E-1,-3.986011147E-1,2.199163437E0
5.591772709E0,-2.070865631E-1,2.269665599E-1,1.556566715E0
5.596565209E0,-5.227413177E-1,6.808173656E-1,9.317517281E-1
5.601357709E0,-8.093814850E-1,6.289036274E-1,5.118064880E-1
5.606150209E0,-1.583373070E0,3.267360330E-1,7.634067535E-1
5.610942709E0,-2.228178978E0,2.052329183E-1,1.468168259E0
5.615735209E0,-2.188117981E0,2.555058002E-1,2.090891361E0
5.620527709E0,-2.191284180E0,4.965023994E-1,2.034437656E0
5.625320209E0,-2.567505836E0,9.260704517E-1,1.657356262E0
5.630112709E0,-2.839365005E0,1.242176652E0,1.741992950E0
5.634905209E0,-2.758574486E0,1.274058223E0,2.154199123E0
5.639697709E0,-2.479015350E0,1.335849285E0,2.247605324E0
5.644490209E0,-2.075609207E0,1.431337118E0,2.540140152E0
5.649282657E0,-1.593449593E0,1.559804797E0,2.522880077E0
5.654075157E0,-1.129055023E0,1.560497403E0,2.393989563E0
5.658867657E0,-8.628854752E-1,1.551734924E0,2.412956715E0
5.663660157E0,-7.523899078E-1,1.481573462E0,2.337880611E0
5.668452657E0,-7.551012039E-1,1.377104044E0,2.151629448E0
5.673245157E0,-9.918050766E-1,1.301151514E0,1.709416866E0
5.678037657E0,-1.148418427E0,1.189976931E0,1.360933304E0
5.682830157E0,-1.080039978E0,1.147257566E0,1.388776779E0
5.687622657E0,-8.316464424E-1,1.001954794E0,1.980640411E0
5.692415157E0,-3.889851570E-1,1.037026167E0,2.009858608E0
5.697207657E0,2.209234238E-1,1.132430315E0,2.195713997E0
5.702000157E0,3.167181015E-1,1.201091051E0,1.794945240E0
5.706792657E0,3.290596008E-1,1.159728765E0,1.561621666E0
5.711585157E0,2.494344711E-1,1.173302412E0,1.566154003E0
5.716377657E0,2.169437408E-1,1.229951620E0,1.617503166E0
5.721170157E0,2.152285576E-1,1.291657686E0,1.773451328E0
5.725962657E0,1.137537956E-1,1.377887964E0,1.889309406E0
5.730755157E0,-1.569709778E-1,1.450605631E0,1.552265167E0
5.735547605E0,-4.302787781E-1,1.395023584E0,7.568187714E-1
5.740340105E0,-7.570462227E-1,1.251376867E0,9.069013596E-2
5.745132605E0,-1.453603745E0,1.133700371E0,7.047891617E-2
5.749925105E0,-1.967898369E0,1.081714869E0,4.987769127E-1
5.754717605E0,-1.923507690E0,9.897212982E-1,5.489859581E-1
5.759510105E0,-1.625501156E0,7.745630741E-1,6.187644005E-1
5.764302605E0,-1.361561775E0,5.339989662E-1,3.101763725E-1
5.769095105E0,-1.119642735E0,5.561008453E-1,-2.185120583E-1
5.773887605E0,-9.207267761E-1,5.550956726E-1,-5.242986679E-1
5.778680105E0,-7.616033554E-1,4.041328430E-1,-5.712566376E-1
5.783472605E0,-5.069694519E-1,1.032998562E-1,-5.308117867E-1
5.788265105E0,-1.568455696E-1,-2.473723888E-1,-8.594622612E-1
5.793057605E0,2.122764587E-1,-8.494088650E-1,-1.203061104E0
5.797850105E0,2.451896667E-1,-1.235103607E0,-1.604524851E0
5.802642605E0,3.801150322E-1,-1.104878902E0,-2.018854856E0
5.807435105E0,2.450809479E-1,-8.630735874E-1,-2.258788109E0
5.812227605E0,-7.040691376E-2,-9.483335018E-1,-2.353985786E0
5.817020105E0,-1.709985733E-1,-1.449605227E0,-2.527649164E0
5.821812605E0,-9.098529816E-3,-2.034630060E0,-2.662235498E0
5.826605053E0,2.659606934E-2,-2.359467506E0,-2.768782616E0
5.831397553E0,-3.137207031E-2,-2.627579451E0,-3.133169651E0
5.836190053E0,-1.806163788E-2,-3.015361309E0,-3.822595596E0
5.840982553E0,5.950069427E-2,-3.399959564E0,-4.473938942E0
5.845775053E0,3.538331985E-1,-4.044426441E0,-4.263255119E0
5.850567553E0,7.603139877E-1,-4.534191608E0,-4.154993534E0
5.855360053E0,1.041247368E0,-4.770854473E0,-4.236993790E0
5.860152553E0,1.197734833E0,-4.771762848E0,-4.396141052E0
5.864945053E0,1.153924465E0,-4.646368980E0,-4.521108150E0
5.869737553E0,9.156303406E-1,-4.657290936E0,-4.588194370E0
5.874530053E0,7.716441154E-1,-4.829695702E0,-4.799825191E0
5.879322553E0,6.470894814E-1,-4.990332603E0,-5.018735886E0
5.884115053E0,4.442062378E-1,-5.009740829E0,-5.161627769E0
5.888907553E0,2.644295692E-1,-4.893180847E0,-5.137063503E0
5.893700053E0,1.634721756E-1,-4.732855797E0,-4.938733101E0
5.898492501E0,2.054696083E-1,-4.502187729E0,-4.376773834E0
5.903285001E0,1.184926033E-1,-4.177438259E0,-3.744727135E0
5.908077501E0,8.556652069E-2,-3.823456049E0,-3.083904743E0
5.912870001E0,6.936502457E-2,-3.395210266E0,-2.302107334E0
5.917662501E0,9.971523285E-2,-2.940780163E0,-1.479385376E0
5.922455001E0,2.088389397E-1,-2.462337971E0,-6.222338676E-1
5.927247501E0,3.699030876E-1,-1.968758106E0,9.954452515E-3
5.932040001E0,5.356245041E-1,-1.542555094E0,5.222954750E-1
5.936832501E0,7.006502151E-1,-1.272644758E0,8.678750992E-1
5.941625001E0,9.435286522E-1,-1.158407211E0,1.054119587E0
5.946417501E0,1.276869297E0,-1.127383471E0,1.437710762E0
5.951210001E0,1.476818562E0,-9.217684269E-1,2.169444084E0
5.956002501E0,1.385192871E0,-5.460562706E-1,2.995179176E0
5.960795001E0,1.176169872E0,-1.225404739E-1,3.635314941E0
5.965587501E0,8.240108490E-1,2.027640343E-1,3.948247433E0
5.970379949E0,3.327555656E-1,3.513245583E-1,3.953855991E0
5.975172449E0,-1.038188934E-1,3.749499321E-1,3.842026234E0
5.979964949E0,-3.947072029E-1,3.433551788E-1,3.789777756E0
5.984757449E0,-4.801173210E-1,3.030619621E-1,3.863338470E0
5.989549949E0,-5.321469307E-1,2.840328217E-1,3.870656967E0
5.994342449E0,-5.021500587E-1,2.280650139E-1,3.857289791E0
5.999134949E0,-3.528337479E-1,1.089906693E-2,3.814010620E0
6.003927449E0,-1.219758987E-1,-1.780562401E-1,3.663876057E0
6.008719949E0,1.725602150E-1,-2.239418030E-1,3.441051483E0
6.013512449E0,5.883054733E-1,-1.415715218E-1,3.443645477E0
6.018304949E0,1.176920414E0,6.842708588E-2,3.595229626E0
6.023097449E0,1.614203453E0,4.122900963E-1,3.591875553E0
6.027889949E0,1.801914692E0,8.162484169E-1,3.542505741E0
6.032682449E0,1.717772961E0,1.133739948E0,3.369782925E0
6.037474897E0,1.634303570E0,1.371576786E0,3.033271313E0
6.042267397E0,1.432490826E0,1.410397530E0,2.452547550E0
6.047059897E0,1.310545921E0,1.451127529E0,2.072125912E0
6.051852397E0,1.226446152E0,1.584285736E0,1.942880154E0
6.056644897E0,1.273793697E0,1.892084122E0,2.115672112E0
6.061437397E0,1.451150894E0,2.133477688E0,2.205355644E0
6.066229897E0,1.575621605E0,2.416926384E0,2.195240021E0
6.071022397E0,1.657964230E0,2.685757637E0,2.101965904E0
6.075814897E0,1.759450436E0,2.998134136E0,1.899559975E0
6.080607397E0,1.967988968E0,3.140593529E0,1.886859417E0
6.085399897E0,2.352456093E0,3.216454506E0,2.010291576E0
6.090192397E0,2.754789352E0,3.281543255E0,2.070409775E0
6.094984897E0,3.057969570E0,3.415258408E0,1.928321362E0
6.099777397E0,3.150925636E0,3.484619617E0,1.446413517E0
6.104569897E0,3.061338425E0,3.258214474E0,1.256242275E0
6.109362345E0,2.457047939E0,3.043080807E0,1.178387642E0
6.114154845E0,2.491739750E0,2.745336056E0,1.647000313E-1
6.118947345E0,2.657875538E0,2.365985870E0,-1.156307697E0
6.123739845E0,2.459458828E0,2.100229740E0,-1.651195526E0
6.128532345E0,2.423538685E0,1.777697086E0,-1.837905884E0
6.133324845E0,2.402322292E0,1.339603424E0,-2.092253208E0
6.138117345E0,2.298740387E0,6.550912857E-1,-2.633239508E0
6.142909845E0,2.164258957E0,4.398632050E-1,-3.993749380E0
6.147702345E0,2.088240623E0,2.324104309E-3,-4.426378250E0
6.152494845E0,1.867945194E0,-3.821539879E-1,-4.252737522E0
6.157287345E0,1.774990559E0,-5.032114983E-1,-3.722842455E0
6.162079845E0,1.858550549E0,-7.880828381E-1,-3.373622417E0
6.166872293E0,1.956201077E0,-6.057839394E-1,-2.556896687E0
6.171664793E0,2.203283310E0,-5.722615719E-1,-1.535352230E0
6.176457293E0,2.298261642E0,-2.084679604E-1,-5.860495567E-1
6.181249793E0,2.105119228E0,1.823344231E-1,2.103767395E-1
6.186042293E0,1.789707184E0,5.313358307E-1,7.643408775E-1
6.190834793E0,1.329268456E0,7.297697067E-1,1.007492542E0
6.195627293E0,8.139138222E-1,8.775243759E-1,1.117641449E0
6.200419793E0,2.887067795E-1,9.937014580E-1,1.102725029E0
6.205212293E0,-1.821413040E-1,1.064609766E0,1.034632683E0
6.210004793E0,-5.415368080E-1,1.082203865E0,9.416699409E-1
6.214797293E0,-6.839880943E-1,1.036917925E0,7.379326820E-1
6.219589793E0,-7.044401169E-1,8.985781670E-1,4.549298286E-1
6.224382293E0,-6.643815041E-1,6.852521896E-1,1.596531868E-1
6.229174741E0,-6.015620232E-1,5.010409355E-1,-1.314439774E-1
6.233967241E0,-4.895009995E-1,3.325772285E-1,-3.377027512E-1
6.238759741E0,-3.018245697E-1,1.950559616E-1,-4.812736511E-1
6.243552241E0,-8.860778809E-2,7.699179649E-2,-6.746745110E-1
6.248344741E0,8.319711685E-2,-1.639223099E-2,-8.465530872E-1
6.253137241E0,2.206897736E-1,-1.614711285E-1,-1.073741198E0
6.257929741E0,3.330497742E-1,-2.984230518E-1,-1.280420303E0
6.262722241E0,4.963207245E-1,-4.463136196E-1,-1.321635485E0
6.267514741E0,7.558569908E-1,-5.474078655E-1,-1.324427843E0
6.272307241E0,9.971179962E-1,-6.010577679E-1,-1.413036585E0
6.277099741E0,1.139009953E0,-5.969567299E-1,-1.575646162E0
6.281892188E0,1.191472530E0,-6.300218105E-1,-1.785868883E0
6.286684688E0,1.150219440E0,-7.067868710E-1,-1.990738630E0
6.291477188E0,1.056420803E0,-8.051061630E-1,-2.263953209E0
6.296269688E0,9.750423431E-1,-1.019525528E0,-2.538556814E0
6.301062188E0,9.112710953E-1,-1.336704493E0,-2.797996044E0
6.305854688E0,7.698092461E-1,-1.681244135E0,-3.080878735E0
6.310647188E0,5.104846954E-1,-1.975753069E0,-3.327517986E0
6.315439688E0,1.647200584E-1,-2.255801201E0,-3.513996363E0
6.320232188E0,-3.338732719E-1,-2.545094490E0,-3.709201813E0
6.325024688E0,-8.816623688E-1,-2.781355858E0,-4.002989769E0
6.329817188E0,-1.351280689E0,-2.983562708E0,-4.322746277E0
6.334609688E0,-1.565905094E0,-3.172886372E0,-4.188337803E0
6.339402188E0,-1.374818325E0,-3.331895113E0,-3.705375910E0
6.344194636E0,-9.617433548E-1,-3.411849737E0,-3.284965515E0
6.348987136E0,-5.437526703E-1,-3.366474390E0,-2.933998108E0
6.353779636E0,-1.495552063E-1,-3.307641029E0,-2.500025749E0
6.358572136E0,1.576066017E-1,-3.211429358E0,-1.910837889E0
6.363364636E0,3.470110893E-1,-3.073569775E0,-1.164654493E0
6.368157136E0,5.313167572E-1,-2.873605728E0,-2.926902771E-1
6.372949636E0,4.553570747E-1,-2.833030224E0,8.350677490E-1
6.377742136E0,7.725963593E-1,-2.516264439E0,1.070250511E0
6.382534636E0,7.978630066E-2,-1.978893638E0,1.255941868E0
6.387327084E0,-8.120732307E-1,-1.684177637E0,1.619794369E0
6.392119584E0,1.352787018E-1,-1.656025887E0,2.208757877E0
6.396912084E0,-3.803811073E-1,-1.583425045E0,2.172273159E0
6.401704584E0,-1.321181297E0,-1.482865095E0,2.171240330E0
6.406497084E0,-1.678294182E0,-1.360515833E0,2.168718815E0
6.411289584E0,-1.872349739E0,-1.227220058E0,2.176799297E0
6.416082084E0,-2.119913101E0,-1.089377165E0,2.244171143E0
6.420874584E0,-2.319079876E0,-9.698512554E-1,2.285875797E0
6.425667084E0,-2.461645126E0,-8.169054985E-1,2.261628628E0
6.430459584E0,-2.506436348E0,-6.625163555E-1,2.352832317E0
6.435252084E0,-2.350154877E0,-5.460274220E-1,2.621420383E0
6.440044584E0,-2.071152210E0,-3.662164211E-1,2.979185104E0
6.444837032E0,-1.791081429E0,-1.231560707E-1,3.357229233E0
6.449629532E0,-1.631987572E0,1.703710556E-1,3.617277622E0
6.454422032E0,-1.608757019E0,4.435539246E-1,3.762006760E0
6.459214532E0,-1.688836575E0,6.565225124E-1,3.738774300E0
6.464007032E0,-1.835271835E0,7.838139534E-1,3.614011765E0
6.468799532E0,-1.939652443E0,8.645269871E-1,3.513508797E0
6.473592032E0,-2.042014599E0,9.325804710E-1,3.543745995E0
6.478384532E0,-2.115213394E0,1.074296236E0,3.627337456E0
6.483177032E0,-2.182032585E0,1.254360199E0,3.670377254E0
6.487969532E0,-2.250504017E0,1.404596329E0,3.579213142E0
6.492761980E0,-2.249407768E0,1.531752825E0,3.449172974E0
6.497554480E0,-2.078914165E0,1.587880373E0,3.490063667E0
6.502346980E0,-1.937948704E0,1.696935654E0,3.696672916E0
6.507139480E0,-1.989428520E0,1.791286230E0,3.879873276E0
6.511931980E0,-2.134806156E0,1.727252722E0,3.952033520E0
6.516724480E0,-2.042880058E0,1.682440519E0,3.351620197E0
6.521516980E0,-2.218280792E0,1.561898232E0,2.856653214E0
6.526309480E0,-2.343173027E0,1.295433044E0,2.812436581E0
6.531101980E0,-2.409031391E0,1.076509476E0,2.644824982E0
6.535894480E0,-2.623898983E0,9.548797607E-1,2.132876873E0
6.540686980E0,-2.790810585E0,7.051758766E-1,1.468183994E0
6.545479428E0,-2.957905769E0,3.629646301E-1,9.742593765E-1
6.550271928E0,-2.992033958E0,-9.538173676E-3,6.864552498E-1
6.555064428E0,-2.449505806E0,-3.124790192E-1,-3.139052391E-1
6.559856928E0,-2.202681065E0,-4.856722355E-1,-9.947309494E-1
6.564649428E0,-2.060901165E0,-6.084787846E-1,-9.344639778E-1
6.569441928E0,-1.827430725E0,-6.784753799E-1,-7.889986038E-1
6.574234428E0,-1.562738419E0,-7.293710709E-1,-1.044358730E0
6.579026928E0,-1.472997665E0,-8.196077347E-1,-1.379862309E0
6.583819428E0,-1.495016575E0,-9.124717712E-1,-1.430691481E0
6.588611928E0,-1.460890293E0,-9.761085510E-1,-1.351555586E0
6.593404376E0,-1.323915958E0,-1.021766186E0,-1.360188484E0
6.598196876E0,-1.199584961E0,-1.084710360E0,-1.403291464E0
6.602989376E0,-1.237411976E0,-1.135497093E0,-1.261427641E0
6.607781876E0,-1.333192825E0,-1.180120945E0,-1.183871508E0
6.612574376E0,-1.283701420E0,-1.233519793E0,-1.272570848E0
6.617366876E0,-1.120121479E0,-1.336344481E0,-1.242556334E0
6.622159376E0,-7.660007477E-1,-1.471685886E0,-1.007587671E0
6.626951876E0,-4.171528816E-1,-1.562712908E0,-9.353475571E-1
6.631744376E0,-1.259660721E-1,-1.668855667E0,-9.488925934E-1
6.636536876E0,-2.307939529E-2,-1.720553637E0,-1.252401352E0
6.641329324E0,-9.464263916E-3,-1.877622843E0,-1.617230892E0
6.646121824E0,-1.307344437E-2,-2.110128403E0,-2.007888556E0
6.650914324E0,1.029305458E-1,-2.351929903E0,-2.472573519E0
6.655706824E0,1.945805550E-1,-2.498978138E0,-2.786010265E0
6.660499324E0,1.702966690E-1,-2.581757784E0,-3.026740313E0
6.665291824E0,2.092213631E-1,-2.650493622E0,-3.281199932E0
6.670084324E0,2.729816437E-1,-2.757651567E0,-3.449127197E0
6.674876824E0,3.761692047E-1,-2.929033756E0,-3.607123852E0
6.679669324E0,5.411343575E-1,-3.046718597E0,-3.905302048E0
6.684461824E0,6.703801155E-1,-3.109943628E0,-4.078464985E0
6.689254272E0,9.056916237E-1,-3.155999899E0,-4.014789581E0
6.694046772E0,1.229562759E0,-3.309672117E0,-4.128234863E0
6.698839272E0,1.570568562E0,-3.393608809E0,-4.624290466E0
6.703631772E0,2.005426884E0,-3.459882498E0,-5.111567020E0
6.708424272E0,2.392261505E0,-3.448591948E0,-5.164490700E0
6.713216772E0,2.935257435E0,-2.944550514E0,-4.678214550E0
6.718009272E0,3.456259012E0,-2.305532455E0,-4.160901070E0
6.722801772E0,3.896768332E0,-1.973481655E0,-3.559288740E0
6.727594220E0,3.996201515E0,-1.428450584E0,-2.891023636E0
6.732386720E0,3.844331980E0,-7.551527023E-1,-2.399720192E0
6.737179220E0,3.313037634E0,-8.160829544E-2,-1.998643398E0
6.741971720E0,2.957387924E0,3.362708092E-1,-1.452736378E0
6.746764220E0,2.599537849E0,6.780338287E-1,-7.965147495E-1
6.751556720E0,2.062044621E0,1.026885986E0,1.297092438E-2
6.756349220E0,1.500449181E0,1.468832016E0,7.915616035E-1
6.761141720E0,9.025826454E-1,1.706388950E0,9.189906120E-1
6.765934220E0,5.200057030E-1,1.913342953E0,1.069622040E0
6.770726720E0,1.207084656E-1,2.131299496E0,1.183255196E0
6.775519220E0,-2.541828156E-2,2.056182384E0,1.250760078E0
6.780311668E0,-1.894235611E-1,2.214893818E0,1.731386662E0
6.785104168E0,-2.207756042E-1,2.212073803E0,1.703076839E0
6.789896668E0,-5.500555038E-2,1.999722004E0,1.119399548E0
6.794689168E0,1.782174110E-1,1.805362701E0,7.235136032E-1
6.799481668E0,2.107758522E-1,1.366175175E0,3.114256859E-1
6.804274168E0,6.645088196E-1,1.127033710E0,6.544818878E-1
6.809066668E0,1.012558460E0,1.322148800E0,8.544602394E-1
6.813859168E0,1.376390457E0,1.287299633E0,6.022953987E-1
6.818651616E0,1.588208199E0,1.257905960E0,2.773003578E-1
6.823444116E0,1.674269676E0,8.524866104E-1,1.367764473E-1
6.828236616E0,1.585169315E0,4.622521400E-1,1.711177826E-2
6.833029116E0,1.330462933E0,5.134425163E-1,-2.433037758E-1
6.837821616E0,1.050186634E0,7.474012375E-1,4.284381866E-3
6.842614116E0,4.631218910E-1,1.102072716E0,3.967261314E-1
6.847406616E0,-1.492753029E-1,8.675217628E-1,5.439472198E-1
6.852199116E0,-5.059647560E-1,5.180926323E-1,9.542574883E-1
6.856991616E0,-7.124671936E-1,-5.324711800E-1,4.143357277E-1
6.861784116E0,-8.426666260E-1,-3.302941322E-1,1.154361725E0
6.866576563E0,-1.243553638E0,8.640050888E-2,1.606247425E0
6.871369063E0,-1.189813614E0,-3.678236008E-1,1.188499928E0
6.876161563E0,-9.213509560E-1,-8.913493156E-1,9.151191711E-1
6.880954063E0,-7.134022713E-1,-1.030200958E0,1.168396950E0
6.885746563E0,-4.549508095E-1,-9.077954292E-1,1.526665211E0
6.890539063E0,-9.668874741E-2,-9.220080376E-1,1.942013741E0
6.895331563E0,1.649937630E-1,-1.120958805E0,2.283164024E0
6.900124063E0,2.502155304E-1,-8.243298531E-1,2.829600811E0
6.904916511E0,1.035051346E-1,-3.216910362E-1,3.090529919E0
6.909709011E0,-5.342292786E-2,6.565046310E-2,2.933154106E0
6.914501511E0,-1.298861504E-1,2.594847679E-1,2.568255901E0
6.919294011E0,-1.195750237E-1,-1.383638382E-2,2.317412376E0
6.924086511E0,-7.465457916E-2,6.242179871E-2,1.902565956E0
6.928879011E0,-1.269726753E-1,5.202302933E-1,1.503521442E0
6.933671511E0,-9.206581116E-2,6.966433525E-1,7.981672287E-1
6.938464011E0,2.246289253E-1,7.492890358E-1,5.067615509E-1
6.943256511E0,4.871497154E-1,1.987829208E-1,-3.557548523E-1
6.948048959E0,8.989892006E-1,7.585620880E-2,-7.541942596E-1
6.952841459E0,7.357063293E-1,4.504427910E-1,-1.011388540E0
6.957633959E0,3.715519905E-1,5.976996422E-1,-1.090783596E0
6.962426459E0,1.859951019E-1,4.542565346E-1,-1.245031834E0
6.967218959E0,1.662979126E-1,3.722410202E-1,-1.369551182E0
6.972011459E0,1.294393539E-1,3.909883499E-1,-1.463770390E0
6.976803959E0,-7.959556580E-2,2.235298157E-1,-1.178866148E0
6.981596459E0,-3.333954811E-1,3.545589447E-1,-1.373050213E0
6.986388907E0,-7.621703148E-1,3.592338562E-1,-1.493806839E0
6.991181407E0,-1.156037331E0,1.282706261E-1,-1.272182941E0
6.995973907E0,-1.264138699E0,-3.732633591E-2,-1.262628317E0
7.000766407E0,-1.227394581E0,-1.020908356E-3,-7.166895866E-1
7.005558907E0,-8.702383041E-1,5.384874344E-2,-1.814303398E-1
7.010351407E0,-1.886992455E-1,-1.884317398E-1,-9.622192383E-2
7.015143907E0,5.105004311E-1,-3.909521103E-1,-5.627119541E-1
7.019936407E0,9.098973274E-1,-4.644618034E-1,-6.534049511E-1
7.024728907E0,9.782671928E-1,-5.478682518E-1,-6.393432617E-1
7.029521355E0,1.045701981E0,-5.689268112E-1,-8.560252190E-1
7.034313855E0,1.176859379E0,-6.575565338E-1,-6.359045506E-1
7.039106355E0,1.476285458E0,-9.837012291E-1,-5.482473373E-1
7.043898855E0,1.854313850E0,-1.214708805E0,-1.460753679E0
7.048691355E0,1.929328918E0,-1.157609940E0,-2.569579124E0
7.053483855E0,1.744026184E0,-9.649686813E-1,-3.342720985E0
7.058276355E0,1.740719795E0,-7.112321854E-1,-3.493952751E0
7.063068855E0,1.729361534E0,-5.044460297E-1,-3.510233402E0
7.067861355E0,1.703791618E0,-4.833126068E-1,-3.501176596E0
7.072653803E0,1.374963760E0,-6.051192284E-1,-3.208943129E0
7.077446303E0,9.090633392E-1,-9.851312637E-1,-2.827295780E0
7.082238803E0,-1.939902306E-1,-8.659048080E-1,-2.183352709E0
7.087031303E0,-7.711157799E-1,-1.117835522E0,-3.013984680E0
7.091823803E0,-1.499471188E0,-1.218484879E0,-2.656187534E0
7.096616303E0,-1.817728996E0,-1.593228817E0,-1.807067394E0
7.101408803E0,-2.949742794E0,-1.595903873E0,-3.111763000E-1
7.106201303E0,-3.316307068E0,-1.947070122E0,8.033676147E-1
7.110993751E0,-3.784656525E0,-2.071708679E0,1.621033669E0
7.115786251E0,-4.144796371E0,-2.031457901E0,2.371017933E0
7.120578751E0,-3.747288704E0,-2.008795738E0,3.171085835E0
7.125371251E0,-3.022541523E0,-2.127240181E0,3.902143955E0
7.130163751E0,-1.968991280E0,-2.283166170E0,4.229569435E0
7.134956251E0,-1.079229355E0,-2.375897884E0,4.197980404E0
7.139748751E0,-6.157355309E-1,-2.423727036E0,4.168886662E0
7.144541251E0,-4.361515045E-1,-2.479780912E0,3.880634308E0
7.149333699E0,-2.365961075E-1,-2.769434214E0,3.336401463E0
7.154126199E0,5.419626236E-1,-2.860110521E0,3.095220566E0
7.158918699E0,1.568436623E0,-3.167619705E0,2.607515812E0
7.163711199E0,1.811776400E0,-3.389874935E0,2.352130413E0
7.168503699E0,1.452685833E0,-3.230621099E0,1.502515316E0
7.173296199E0,9.734559059E-1,-2.968575478E0,5.809988976E-1
7.178088699E0,1.022611618E0,-2.757277489E0,-2.601447105E-1
7.182881199E0,1.648123026E0,-2.655248165E0,-8.664348125E-1
7.187673699E0,2.593327045E0,-2.693729401E0,-1.198709249E0
7.192466147E0,3.478134632E0,-2.464541435E0,-1.687666416E0
7.197258647E0,4.255570412E0,-2.227076530E0,-1.899893999E0
7.202051147E0,2.564138412E0,-1.991965294E0,-2.432331085E0
7.206843647E0,1.307684183E0,-1.555482388E0,-3.585959673E0
7.211636147E0,1.325064659E0,-1.275359154E0,-4.016565323E0
7.216428647E0,1.829882383E0,-1.421646595E0,-4.344667435E0
7.221221147E0,2.292482376E0,-1.522229671E0,-4.266816139E0
7.226013595E0,2.859121323E0,-1.638566494E0,-4.295951366E0
7.230806095E0,3.910655260E0,-1.989406586E0,-3.914539099E0
7.235598595E0,4.926796436E0,-2.236483097E0,-3.785950184E0
7.240391095E0,5.688198566E0,-1.978377819E0,-3.716368437E0
7.245183595E0,6.507335663E0,-1.752928257E0,-3.320668221E0
7.249976095E0,6.965929985E0,-3.027400970E-1,-2.226579189E0
7.254768595E0,6.570106030E0,3.862009525E0,-2.964649677E0
7.259561095E0,6.891293526E0,5.070149422E0,-1.904696703E0
7.264353595E0,6.618192673E0,5.569204807E0,-2.187082052E0
7.269146043E0,7.566216469E0,5.954434872E0,-2.146011829E0
7.273938543E0,7.127746582E0,6.871116638E0,-1.696017027E0
7.278731043E0,6.279159546E0,7.037719250E0,-1.126624346E0
7.283523543E0,4.484037876E0,5.596622467E0,-8.843672276E-1
7.288316043E0,2.980353594E0,3.812541008E0,5.959484577E-1
7.293108543E0,2.135353804E0,2.375552177E0,3.543684721E0
7.297901043E0,1.611108303E0,1.122501850E0,5.879122734E0
7.302693543E0,1.327962875E0,8.372831345E-2,5.194728851E0
7.307486043E0,1.243188858E0,-1.132917404E0,3.362887859E0
7.312278491E0,6.979184151E-1,-1.476549149E0,1.759698629E0
7.317070991E0,-4.948735237E-1,-1.051564217E0,2.521443367E-1
7.321863491E0,-2.472847462E0,6.795692444E-2,-1.871290922E0
7.326655991E0,-3.155438900E0,9.645218849E-1,-2.901031017E0
7.331448491E0,-2.992466450E0,1.609515190E0,-3.070227146E0
7.336240991E0,-2.961194515E0,1.578639984E0,-1.788103938E0
7.341033491E0,-2.351752281E0,1.206381798E0,1.861493587E-1
7.345825938E0,-9.978213310E-1,4.779524803E-1,1.257164001E0
7.350618438E0,-9.850602150E-1,6.304917336E-1,3.351696253E0
7.355410938E0,-2.068684578E0,1.390110493E0,2.166413307E0
7.360203438E0,-2.081133366E0,2.375946045E0,1.473695755E0
7.364995938E0,-1.253364086E0,3.112629414E0,1.512041330E0
7.369788438E0,-4.741530418E-1,3.889312267E0,4.780890942E-1
7.374580938E0,3.937287331E-1,4.332225323E0,-7.399258614E-1
7.379373438E0,1.759671211E0,4.408696651E0,-1.230336666E0
7.384165886E0,3.188125134E0,4.255870342E0,-1.625530243E0
7.388958386E0,4.673152924E0,3.722142220E0,-2.391012192E0
7.393750886E0,5.935608864E0,2.238172531E0,-3.281727314E0
7.398543386E0,4.774199963E0,-4.989252090E-1,-4.005205154E0
7.403335886E0,2.626572132E0,-2.146988869E0,-4.536704540E0
7.408128386E0,5.879039764E-1,-1.751739979E0,-3.824050426E0
7.412920886E0,-1.398741722E0,-1.318846226E0,-3.555974722E0
7.417713386E0,-3.486533165E0,-1.008369923E0,-3.983708382E0
7.422505886E0,-5.421577454E0,-5.369162560E-1,-4.456411362E0
7.427298334E0,-6.882826328E0,1.777648926E-3,-3.744150639E0
7.432090834E0,-7.410187244E0,-4.990429878E-1,-2.411903858E0
7.436883334E0,-7.273824215E0,-7.492585182E-1,1.089460373E0
7.441675834E0,-7.347892284E0,-2.946138382E-1,3.000476599E0
7.446468334E0,-7.773496628E0,-6.398820877E-2,3.610265017E0
7.451260834E0,-7.794020176E0,4.781007767E-1,3.523176432E0
7.456053334E0,-6.888798237E0,2.158565521E0,2.951074123E0
7.460845782E0,-6.464979649E0,3.585032463E0,1.338981152E0
7.465638282E0,-6.474735737E0,4.255095482E0,-5.501115322E-1
7.470430782E0,-6.101194859E0,4.499532223E0,-1.819022655E0
7.475223282E0,-4.677589417E0,4.730380535E0,-1.686812997E0
7.480015782E0,-2.645850182E0,3.927371502E0,-1.024908066E0
7.484808282E0,-1.189789772E0,2.462627411E0,-8.201798201E-1
7.489600782E0,-3.691329956E-1,-6.770992279E-2,1.331286192E0
7.494393282E0,1.445484161E-1,-3.104590654E0,3.200363159E0
7.499185782E0,2.311415672E-1,-4.643702507E0,4.239047050E0
7.503978230E0,-5.471558571E-1,-4.812394142E0,3.258916140E0
7.508770730E0,-1.762298107E0,-3.789341450E0,1.004445791E0
7.513563230E0,-2.449198246E0,-2.211546898E0,-3.883619308E-1
7.518355730E0,-2.295356750E0,-1.219895363E0,-3.210499287E-1
7.523148230E0,-1.376543045E0,-3.343920708E-1,4.462795258E-1
7.527940730E0,-1.348671913E-1,5.446782112E-1,1.416601658E0
7.532733230E0,2.028851509E-1,1.704179287E0,6.483135223E-1
7.537525730E0,5.206174850E-1,2.781573296E0,4.609229565E-1
7.542318230E0,-1.422333717E-1,3.238200665E0,-7.575490475E-1
7.547110678E0,3.177175522E-1,3.139313698E0,-6.262402534E-1
7.551903178E0,1.634601116E0,2.612740040E0,1.335167885E-1
7.556695678E0,2.460668087E0,1.815645218E0,1.729393005E-2
7.561488178E0,3.276319027E0,1.442709446E0,2.115769386E-1
7.566280678E0,3.538648367E0,1.356509209E0,-7.593231201E-1
7.571073178E0,4.337172508E0,1.341641426E0,2.445111275E-1
7.575865678E0,5.119352341E0,9.676918983E-1,7.462563515E-1
7.580658178E0,5.137739182E0,4.386272430E-1,5.029726028E-2
7.585450678E0,4.378794670E0,1.056070328E-1,-1.444435120E-1
7.590243126E0,3.345813036E0,8.771848679E-2,-3.146252632E-1
7.595035626E0,2.463327408E0,-1.231584549E-1,-5.460970402E-1
7.599828126E0,1.808037758E0,-4.015998840E-1,-6.172268391E-1
7.604620626E0,1.210855484E0,-4.055190086E-1,-4.811954498E-1
7.609413126E0,5.153388977E-1,-6.234693527E-2,1.700849533E-1
7.614205626E0,-4.268045425E-1,4.825305939E-1,2.229533195E-1
7.618998126E0,-1.073251724E0,5.254902840E-1,2.247633934E-1
7.623790626E0,-1.427384377E0,-1.909079552E-1,5.306940079E-1
7.628583126E0,-9.099864960E-1,-1.474029303E0,9.736487865E-1
7.633375574E0,-8.407201767E-1,-3.010130882E0,5.546741486E-1
7.638168074E0,-8.050918579E-1,-4.268778324E0,4.266657829E-1
7.642960574E0,-1.165158272E0,-4.854290962E0,-3.390846252E-1
7.647753074E0,-1.579678535E0,-4.796818733E0,-1.202276230E0
7.652545574E0,-1.719170570E0,-4.816862583E0,-1.772553086E0
7.657338074E0,-8.860645294E-1,-5.012594223E0,-1.319375038E0
7.662130574E0,5.023069382E-1,-5.248857021E0,-8.014731407E-1
7.666923074E0,1.917395115E0,-5.079039574E0,-9.644801617E-1
7.671715574E0,2.969972134E0,-4.301864624E0,-1.292335510E0
7.676508074E0,3.259722710E0,-3.399163246E0,-1.387140512E0
7.681300522E0,3.162707806E0,-2.920212746E0,-7.932553291E-1
7.686093022E0,2.793229103E0,-3.289851427E0,-6.795790195E-1
7.690885522E0,2.279054642E0,-4.225243092E0,-5.779304504E-1
7.695678022E0,2.021386147E0,-5.064326286E0,3.112521172E-1
7.700470522E0,1.397530079E0,-6.461750984E0,1.565644741E-1
7.705263022E0,9.803419113E-1,-7.461215496E0,-1.461122036E-1
7.710055522E0,7.530794144E-1,-8.089683533E0,-3.544952869E-1
7.714847970E0,8.042426109E-1,-8.566114426E0,-6.750001907E-1
7.719640470E0,9.413652420E-1,-9.246566772E0,-1.620362043E0
7.724432970E0,1.289402962E0,-9.688583374E0,-2.007334471E0
7.729225470E0,1.686052322E0,-1.021951294E1,-1.816682220E0
7.734017970E0,1.846259594E0,-1.054430199E1,-1.554324150E0
7.738810470E0,1.756398201E0,-1.007725525E1,-1.568492889E0
7.743602970E0,2.043189526E0,-9.838479996E0,-3.064219952E-1
7.748395470E0,1.695470333E0,-8.045456886E0,1.395243168E0
7.753187970E0,7.852745056E-2,-5.195518970E0,3.601205349E-1
7.757980418E0,-1.698889732E-1,-2.996436834E0,1.205454588E0
7.762772918E0,8.141627312E-1,-2.616018534E0,1.422078371E0
7.767565418E0,2.560866356E0,-3.054403305E0,1.330317259E0
7.772357918E0,4.936285973E0,-3.074464083E0,1.062658310E0
7.777150418E0,6.770708561E0,-2.375329256E0,4.865698814E-1
7.781942918E0,8.145590782E0,-1.246943951E0,-7.130861282E-3
7.786735418E0,9.595649719E0,-7.317161560E-2,3.557024002E-1
7.791527918E0,1.016674709E1,1.700146675E0,8.811888695E-1
7.796320366E0,9.493054390E0,3.453681946E0,1.431102753E-1
7.801112866E0,8.697777748E0,6.870982647E0,6.857483387E-1
7.805905366E0,6.367637634E0,1.135913086E1,-1.356543422E0
7.810697866E0,1.828526497E0,1.538435745E1,-3.642951488E0
7.815490366E0,-2.768259048E-1,1.741097450E1,-4.320846081E0
7.820282866E0,-2.533583641E-1,1.734568977E1,-2.276928663E0
7.825075366E0,3.907880783E-1,1.575533867E1,4.738037586E-1
7.829867866E0,1.032768726E0,1.363294983E1,2.325358868E0
7.834660313E0,9.243350029E-1,1.212575722E1,3.902023315E0
7.839452813E0,3.761415482E-1,1.009201241E1,4.595317841E0
7.844245313E0,2.074899673E-1,7.269363403E0,3.630115032E0
7.849037813E0,7.364983559E-1,4.288629532E0,2.710860968E0
7.853830313E0,1.000659466E0,2.870603085E0,1.291363001E0
7.858622813E0,1.477733135E0,2.819244862E0,-1.743149757E-2
7.863415313E0,1.734842300E0,2.848034859E0,-3.015100956E-1
7.868207761E0,2.020046949E0,2.877798557E0,-6.216311455E-2
7.873000261E0,1.630069256E0,3.310621738E0,3.908467293E-2
7.877792761E0,3.703579903E-1,4.781489849E0,2.885870934E-1
7.882585261E0,-1.495233059E0,6.929955006E0,5.234370232E-1
7.887377761E0,-2.421982765E0,7.873450756E0,3.384566307E-1
7.892170261E0,-1.813066959E0,7.598329544E0,1.686158180E-1
7.896962761E0,-1.099607944E0,6.893292427E0,-1.784224510E-1
7.901755261E0,-1.428047180E0,5.572852135E0,-9.066112041E-1
7.906547761E0,-1.720556736E0,3.381364822E0,-1.198407531E0
7.911340209E0,-1.986538410E0,2.242290497E0,-8.394756317E-1
7.916132709E0,-2.188529968E0,9.469184875E-1,-6.030957699E-1
7.920925209E0,-2.513823986E0,1.372432709E-1,-8.521206379E-1
7.925717709E0,-3.012865067E0,-5.020513535E-1,-1.261186481E0
7.930510209E0,-3.129367352E0,-7.674512863E-1,-1.120970488E0
7.935302709E0,-3.316784382E0,-8.837041855E-1,-8.465590477E-1
7.940095209E0,-3.480214596E0,-2.560958862E-1,-1.504938364E0
7.944887657E0,-3.330710888E0,-8.734321594E-1,-1.880392313E0
7.949680157E0,-3.871171474E0,-9.825067520E-1,-2.713319778E0
7.954472657E0,-3.907311440E0,-1.229843616E0,-2.360379219E0
7.959265157E0,-3.931595802E0,-1.589262009E0,-1.509479880E0
7.964057657E0,-3.557609081E0,-2.407207012E0,-1.090092897E0
7.968850157E0,-2.632838249E0,-2.493946075E0,-1.681251526E-1
7.973642605E0,-2.173640728E0,-2.314992428E0,8.200521469E-1
7.978435105E0,-3.029026508E0,-1.854334831E0,1.431508064E0
7.983227605E0,-3.413415909E0,-1.945925236E0,1.212989092E0
7.988020105E0,-2.256064415E0,-2.053340435E0,-9.299806356E-1
7.992812605E0,-1.009996891E0,-1.956383705E0,-2.464114904E0
7.997605105E0,4.057307243E-1,-1.954060555E0,-3.927592278E0
8.002397605E0,1.325952530E0,-1.456933975E0,-4.396698475E0
8.007190053E0,8.785030842E-1,-5.559401512E-1,-3.525805950E0
8.011982553E0,1.359124184E-1,4.759302139E-1,-2.611448526E0
8.016775053E0,-2.455921173E-1,8.136167526E-1,-1.741740704E-1
8.021567553E0,-2.504816055E-1,8.534049988E-1,1.970992088E-1
8.026360053E0,-7.813963890E-1,1.006362915E0,4.393575191E-1
8.031152553E0,-1.713537693E0,4.360847473E-1,6.417272091E-1
8.035945001E0,-1.474339485E0,-2.738446712E0,1.622387409E0
8.040737553E0,-1.120105743E0,-2.555592060E0,2.504738569E0
8.045530001E0,-1.058455944E0,-1.948412895E0,1.927722216E0
8.050322501E0,-4.064364433E-1,-1.760608196E0,2.132324934E0
8.055115001E0,-9.810924530E-3,-1.448664188E0,2.286056280E0
8.059907501E0,7.521104813E-2,-6.595001221E-1,2.638617039E0
8.064700001E0,6.618690491E-2,3.593463898E-1,3.027279377E0
8.069492501E0,-5.512189865E-2,1.127050400E0,2.904687881E0
8.074284949E0,5.098438263E-2,1.598996162E0,2.812801600E0
8.079077449E0,6.202516556E-1,1.784069061E0,2.657498360E0
8.083869949E0,1.299033880E0,1.839782715E0,2.582161665E0
8.088662449E0,1.112794638E0,1.793147087E0,5.107829571E-1
8.093454949E0,9.339251518E-1,1.672077179E0,-2.220961094E0
8.098247449E0,1.497531891E0,1.348546028E0,-3.349569321E0
8.103039949E0,1.388442993E0,5.174436569E-1,-3.409971237E0
8.107832449E0,2.289029598E0,-3.965315819E-1,-2.582950830E0
8.112624897E0,2.823761702E0,-1.263041973E0,-2.388619184E0
8.117417397E0,3.104719400E0,-1.859401703E0,-1.650727630E0
8.122209897E0,3.269373417E0,-2.098742008E0,-6.621789932E-2
8.127002397E0,2.390215874E0,-2.034861088E0,1.876945496E-1
8.131794897E0,1.144927979E0,-1.384000301E0,-1.404111385E-1
8.136587397E0,6.793112755E-1,-6.380882263E-1,-7.492542267E-3
8.141379897E0,8.390946388E-1,-1.687412262E-1,3.757019043E-1
8.146172345E0,1.192422390E0,-1.410865784E-2,2.774157524E-1
8.150964845E0,1.700610161E0,2.917275429E-1,6.949481964E-1
8.155757345E0,1.803554058E0,6.860914230E-1,1.244201422E0
8.160549845E0,1.173861504E0,1.077832222E0,5.188412666E-1
8.165342345E0,2.368910313E0,1.918794155E0,9.351837635E-1
8.170134845E0,3.483605146E0,2.313219547E0,-2.828345299E-1
8.174927345E0,3.751654148E0,3.650308609E0,-9.699072838E-1
8.179719793E0,3.318650246E0,4.070463657E0,-1.660544634E0
8.184512293E0,2.130775452E0,4.002842903E0,-2.198884010E0
8.189304793E0,1.555939674E0,4.653725147E0,-2.103617430E0
8.194097293E0,9.733600616E-1,4.402569771E0,-1.552788019E0
8.198889793E0,9.845027924E-1,3.506719589E0,-4.448816776E-1
8.203682293E0,3.453464508E-1,2.765372515E0,3.295965195E-1
8.208474793E0,-9.392709732E-1,2.130192757E0,1.095210075E0
8.213267241E0,-2.390658379E0,1.083236456E0,1.641498566E0
8.218059741E0,-3.653062820E0,-2.946417332E-1,1.590613842E0
8.222852241E0,-4.410370827E0,-1.571843266E0,1.236405849E0
8.227644741E0,-4.605032921E0,-1.789410114E0,9.933681488E-1
8.232437241E0,-3.874007225E0,-3.442935705E0,1.993062496E0
8.237229741E0,-2.807998657E0,-5.868278980E0,6.423401833E-1
8.242022241E0,-1.594561577E0,-7.394048691E0,2.400856018E-1
8.246814688E0,-3.903732300E-1,-8.074131966E0,-6.417083740E-2
8.251607188E0,6.009755135E-1,-8.724186897E0,1.745656967E0
8.256399688E0,1.573343277E-1,-9.088684082E0,6.412956715E-1
8.261192188E0,4.855728149E-1,-9.267462730E0,1.802680492E-1
8.265984688E0,7.897901535E-1,-8.283479691E0,6.886472702E-1
8.270777188E0,1.284264565E0,-6.578407288E0,6.392719746E-1
8.275569688E0,1.720033169E0,-4.934645653E0,1.361127615E0
8.280362136E0,2.179392338E0,-3.917446852E0,2.543245316E0
8.285154636E0,2.381171227E0,-3.354950905E0,3.269951820E0
8.289947136E0,2.059970856E0,-3.186772823E0,3.211327553E0
8.294739636E0,1.916188240E0,-3.105738401E0,2.431602478E0
8.299532136E0,1.819175243E0,-2.552796125E0,1.785307407E0
8.304324636E0,1.564046860E0,-3.145076036E0,1.048070431E0
8.309117084E0,1.645346642E0,-3.695583105E0,3.107595444E-1
8.313909584E0,2.060977459E0,-4.244986534E0,-1.216981053E0
8.318702084E0,2.568365574E0,-4.757146835E0,-1.699505925E0
8.323494584E0,3.599751472E0,-5.212554455E0,-2.683657169E0
8.328287084E0,3.929859638E0,-5.785719872E0,-3.882716179E0
8.333079584E0,3.722205162E0,-6.529156685E0,-4.136525154E0
8.337872084E0,3.008259773E0,-7.025703430E0,-4.360117912E0
8.342664532E0,2.019841671E0,-7.019094467E0,-4.038648129E0
8.347457032E0,9.497981071E-1,-6.337203026E0,-3.776854992E0
8.352249532E0,7.405266762E-1,-5.886948586E0,-2.091631651E0
8.357042032E0,1.059844017E0,-5.211783886E0,-8.268122673E-1
8.361834532E0,1.512587547E0,-4.595252514E0,8.465888500E-1
8.366626980E0,1.675847530E0,-3.801424026E0,1.785200596E0
8.371419480E0,1.930233002E0,-2.570845842E0,2.350674629E0
8.376211980E0,2.508109093E0,-2.656545639E-1,2.212038517E0
8.381004480E0,3.412563086E0,2.021316528E0,6.402325630E-1
8.385796980E0,3.732417107E0,4.913657665E0,-8.932518959E-1
8.390589480E0,3.321162462E0,8.491503716E0,-2.027062416E0
8.395381980E0,3.756812811E0,1.165154076E1,-2.789783239E0
8.400174428E0,4.312555790E0,1.393270493E1,-3.417715073E0
8.404966928E0,5.078511238E0,1.553244209E1,-3.211293221E0
8.409759428E0,4.860139847E0,1.670127296E1,-1.938075781E0
8.414551928E0,1.215614319E0,1.635453796E1,-2.294876814E0
8.419344428E0,-2.716715813E0,1.261744785E1,-4.817454815E-1
8.424136928E0,-3.538645267E0,7.863948822E0,-1.315940022E0
8.428929428E0,-1.864614964E0,4.467173100E0,-2.367293835E-1
8.433721876E0,-2.057280064E0,1.598967075E0,9.313168526E-1
8.438514376E0,-2.108593464E0,-4.403314590E-1,1.884632349E0
8.443306876E0,-1.586203098E0,-1.706316948E0,2.385019064E0
8.448099376E0,-1.094275475E0,-2.364785671E0,2.931922674E0
8.452891876E0,-8.551063538E-1,-2.289654732E0,3.093888044E0
8.457684376E0,-1.259021759E0,-1.727620602E0,3.087695122E0
8.462476876E0,-1.958122253E0,-6.766433716E-1,3.189146519E0
8.467269324E0,-2.540163040E0,8.710374832E-1,2.486268044E0
8.472061824E0,-2.483389854E0,1.903049946E0,1.744839907E0
8.476854324E0,-1.781538010E0,2.721951962E0,1.488252878E0
8.481646824E0,-8.365211487E-1,2.740693569E0,7.517361641E-1
8.486439324E0,-2.577781677E-1,2.339039326E0,-3.673553467E-3
8.491231824E0,4.496083260E-1,2.244328022E0,-6.628825665E-1
8.496024324E0,2.285370827E-1,2.197548389E0,-2.732345343E0
8.500816772E0,6.794629097E-1,2.486704826E0,-2.915372610E0
8.505609272E0,1.225116730E0,2.412645340E0,-2.461886644E0
8.510401772E0,1.661857367E0,2.328446388E0,-2.064893007E0
8.515194272E0,1.984719038E0,2.524593353E0,-1.519884467E0
8.519986772E0,2.020215273E0,2.532197952E0,-1.005318403E0
8.524779272E0,2.129447937E0,2.641427040E0,-8.761534691E-1
8.529571772E0,2.374594688E0,2.807189941E0,-5.678479671E-1
8.534364272E0,2.518755198E0,3.053750038E0,-3.556995392E-1
8.539156720E0,2.504885674E0,3.193223953E0,-4.439666271E-1
8.543949220E0,2.424555302E0,3.405832291E0,-4.334325790E-1
8.548741720E0,1.736507654E0,3.364598274E0,-4.781506062E-1
8.553534220E0,1.254099369E0,3.101721764E0,-7.049303055E-1
8.558326720E0,1.161132336E0,2.881074905E0,-1.008725166E0
8.563119220E0,7.501182556E-1,2.258859634E0,-1.690939307E0
8.567911720E0,1.431224108E0,1.441358566E0,-1.945241809E0
8.572704168E0,1.223675013E0,7.156658173E-1,-3.249545336E0
8.577496668E0,7.848241329E-1,1.278200150E-1,-3.587361574E0
8.582289168E0,-7.344841957E-2,-6.091527939E-1,-3.694481373E0
8.587081668E0,-1.276420355E0,-1.579012394E0,-3.767459631E0
8.591874168E0,-1.812187672E0,-2.681617260E0,-3.236408234E0
8.596666668E0,-1.347372055E0,-3.503925323E0,-1.360820174E0
8.601459168E0,-4.298147202E0,-4.338301182E0,-9.321720600E-1
8.606251616E0,-5.094812393E0,-5.013051510E0,5.630867481E-1
8.611044116E0,-4.471207142E0,-5.954969406E0,2.775157452E0
8.615836616E0,-3.992636919E0,-6.232299805E0,3.797992468E0
8.620629116E0,-3.655150652E0,-5.519971848E0,4.425855637E0
8.625421616E0,-3.322040081E0,-4.375919819E0,4.724920750E0
8.630214116E0,-2.849973440E0,-3.040030479E0,4.476424217E0
8.635006616E0,-2.393249512E0,-1.874075413E0,3.814007998E0
8.639799063E0,-1.745130539E0,-1.382703304E0,2.819047213E0
8.644591563E0,-9.810857773E-1,-7.607221603E-1,1.545612812E0
8.649384063E0,-7.232432365E-1,-2.684507370E-1,-2.858150005E-1
8.654176563E0,-6.153080463E-1,3.637199402E-1,-1.439103365E0
8.658969063E0,-7.155537605E-2,6.287298203E-1,-2.282145500E0
8.663761563E0,5.562703609E-1,6.419916153E-1,-2.768294096E0
8.668554063E0,1.058376908E0,1.612110138E-1,-2.626233816E0
8.673346511E0,1.286163330E0,-4.734029770E-1,-2.161751986E0
8.678139011E0,1.240666628E0,-1.231096268E0,-1.660089850E0
8.682931511E0,1.066127896E0,-1.746560097E0,-8.424063921E-1
8.687724011E0,9.213542938E-1,-1.887287617E0,6.044173241E-2
8.692516511E0,1.007822752E0,-1.430454731E0,9.979259968E-1
8.697309011E0,7.610521317E-1,-8.324022293E-1,1.455247164E0
8.702101511E0,5.400753021E-2,-1.453561783E-1,1.508863211E0
8.706894011E0,-3.879880905E-1,2.269754410E-1,1.455153465E0
8.711686459E0,-3.659772873E-2,-1.350288391E-1,1.587064266E0
8.716478959E0,6.799814701E-1,-1.095980644E0,1.838721514E0
8.721271459E0,1.042571068E0,-2.000197887E0,2.011936665E0
8.726063959E0,9.091753960E-1,-2.504125118E0,2.044786453E0
8.730856459E0,6.941015720E-1,-3.105806351E0,1.459174156E0
8.735648959E0,3.855793476E-1,-4.070418358E0,9.851012230E-1
8.740441407E0,2.371664047E-1,-4.924946308E0,1.957863092E0
8.745233907E0,-1.073678970E0,-5.628319740E0,3.536310196E0
8.750026407E0,-1.691304684E0,-4.436221600E0,6.156839371E0
8.754818907E0,-1.619373560E0,-5.190803528E0,7.975535870E0
8.759611407E0,-2.638000011E0,-7.903503418E0,3.102286816E0
8.764403907E0,-5.891234398E0,-2.561065674E0,8.762135506E-1
8.769196407E0,-2.798377514E0,2.306575775E-1,2.319612026E0
8.773988855E0,-1.219882727E0,1.516054153E0,1.894541025E0
8.778781355E0,-5.839052200E-1,2.996347427E0,2.179076910E0
8.783573855E0,5.121581554E-1,3.651623726E0,2.096622705E0
8.788366355E0,5.298364162E-1,3.514049530E0,1.180636168E0
8.793158855E0,3.353762627E-1,3.367898941E0,-4.207067490E-1
8.797951355E0,7.136480808E-1,2.614260674E0,-1.456542373E0
8.802743855E0,2.248671055E0,9.624900818E-1,-1.689968586E0
8.807536303E0,4.793491364E0,1.955047607E0,-4.263241768E0
8.812328803E0,2.919419765E0,5.334760666E0,-5.929237366E0
8.817121303E0,1.977855086E0,6.985459328E0,-5.956966400E0
8.821913803E0,2.229024649E0,5.414198875E0,-5.969900131E0
8.826706303E0,2.882524490E0,3.983886719E0,-5.596022606E0
8.831498803E0,2.588363409E0,2.678217888E0,-5.548717499E0
8.836291251E0,2.153334141E0,1.440979004E0,-6.036481857E0
8.841083751E0,1.221466303E0,5.673694611E-1,-7.148502827E0
8.845876251E0,6.433389187E-1,-8.093929291E-2,-7.178205490E0
8.850668751E0,-3.408412933E-1,-1.074475288E0,-5.935769081E0
8.855461251E0,-2.150392294E0,-5.256547928E-1,-4.412554741E0
8.860253699E0,-3.051145792E0,7.197895050E-1,-3.472056389E0
8.865046199E0,-2.974411726E0,9.427289963E-1,-2.487341881E0
8.869838699E0,-3.662930489E0,4.260396957E-1,-1.052669168E0
8.874631199E0,-3.696379185E0,4.304599762E-2,1.208310604E0
8.879423699E0,-2.996375799E0,1.010099411E0,3.562186241E0
8.884216147E0,-3.347126484E0,1.948419571E0,6.027627468E0
8.889008647E0,-3.594793797E0,2.109254837E0,6.125937462E0
8.893801147E0,-3.015234947E0,1.776764870E0,6.046033859E0
8.898593647E0,-2.526732445E0,1.007728577E0,5.316538811E0
8.903386147E0,-1.841959000E0,9.682579041E-1,6.192356586E0
8.908178647E0,-1.018752098E0,1.609351158E0,7.272244930E0
8.912971095E0,-1.411961794E0,2.687143326E0,7.497131348E0
8.917763595E0,-1.473259926E0,2.606170654E0,7.382067680E0
8.922556095E0,-1.238458395E0,1.907320023E0,6.672809124E0
8.927348595E0,-1.848443031E0,2.537322998E0,5.017254353E0
8.932141095E0,-2.830466270E0,3.737847328E0,1.985129595E0
8.936933595E0,-2.004642725E0,4.373208046E0,-6.040823460E-1
8.941726043E0,-4.703209400E-1,4.177168846E0,-7.066719532E-1
8.946518543E0,1.039821625E0,3.948818207E0,-1.219965100E0
8.951311043E0,2.243406296E0,3.222741127E0,-2.640745401E0
8.956103543E0,3.225837708E0,2.250205040E0,-5.425220490E0
8.960895991E0,2.807935715E0,1.570873260E0,-8.262126923E0
8.965688491E0,2.211601973E0,9.961490631E-1,-1.005149364E1
8.970480991E0,1.301350474E0,2.725000381E-1,-1.028648663E1
8.975273491E0,1.634836912E0,-2.679271698E-1,-8.925319672E0
8.980065991E0,2.310773373E0,-7.545061111E-1,-8.058341980E0
8.984858491E0,2.697581291E0,-9.030952454E-1,-7.871640205E0
8.989650938E0,2.871922016E0,-6.593427658E-1,-8.067472458E0
8.994443438E0,2.589856625E0,-3.585815430E-2,-8.484678268E0
8.999235938E0,2.052184105E0,5.776195526E-1,-9.296113014E0
9.004028438E0,2.432543278E0,7.753219604E-1,-9.484749794E0
9.008820938E0,2.653367996E0,7.081775665E-1,-8.650102615E0
9.013613386E0,1.149923325E0,3.298025131E-1,-6.948327065E0
9.018405886E0,-7.897145748E-1,7.195549011E-1,-7.193161964E0
9.023198386E0,-1.228359222E0,1.215405464E0,-5.688275337E0
9.027990886E0,3.356208801E-1,1.041896820E0,-2.833709955E0
9.032783386E0,1.817020059E0,1.280638695E0,-2.789757252E-1
9.037575886E0,2.123811722E0,1.110947609E0,3.632676601E-1
9.042368334E0,3.276551962E0,3.645362854E-1,2.992418528E0
9.047160834E0,3.405771255E0,-3.740787506E-1,5.404684067E0
9.051953334E0,1.614084363E0,-9.513740540E-1,4.237331390E0
9.056745834E0,5.218553543E-1,-2.031275749E0,3.548942804E0
9.061538282E0,-3.041598797E-1,-2.403954983E0,4.277904510E0
9.066330782E0,2.278981209E-1,-1.647449970E0,5.571666241E0
9.071123282E0,-2.501721382E-1,-1.835174084E0,6.293034554E0
9.075915782E0,-1.102205276E0,-2.173331738E0,7.316132545E0
9.080708282E0,-1.783023357E0,-2.574401855E0,8.148948669E0
9.085500782E0,-2.758524895E0,-2.788285255E0,7.688490391E0
9.090293230E0,-3.698374748E0,-2.803941727E0,6.543211937E0
9.095085730E0,-4.175415039E0,-2.572085381E0,5.381582260E0
9.099878230E0,-4.052372456E0,-2.286879539E0,4.071432114E0
9.104670730E0,-3.460416317E0,-2.259033680E0,3.269732952E0
9.109463178E0,-2.418076038E0,-2.435302734E0,3.091846704E0
9.114255678E0,-1.482491970E0,-2.633455753E0,2.859774351E0
9.119048178E0,-8.855805397E-1,-3.101824760E0,2.069886923E0
9.123840678E0,-5.286617279E-1,-3.648994923E0,1.591178179E0
9.128633178E0,-7.510957718E-1,-3.649541378E0,2.139683962E0
9.133425678E0,-7.773904800E-1,-3.859481335E0,1.171493053E0
9.138218126E0,-6.985378265E-1,-4.180209637E0,-5.321023464E-1
9.143010626E0,-1.411479950E0,-4.116775990E0,-6.392405033E-1
9.147803126E0,-2.493597984E0,-3.736450195E0,-1.503721952E0
9.152595626E0,-3.120599270E0,-3.379120350E0,-3.831126690E-1
9.157388074E0,-3.103795528E0,-3.180825233E0,6.424934864E-1
9.162180574E0,-3.255890369E0,-2.864242077E0,-9.579277039E-2
9.166973074E0,-3.717735767E0,-2.497642517E0,2.360352755E0
9.171765574E0,-3.678732395E0,-1.941690445E0,4.023977757E0
9.176558074E0,-3.117556095E0,-7.958922386E-1,4.404231071E0
9.181350522E0,-1.989288807E0,9.055995941E-1,3.018912315E0
9.186143022E0,-8.992123604E-1,2.570272446E0,2.690927982E-1
9.190935522E0,8.878326416E-2,3.546737671E0,-2.285680771E0
9.195728022E0,6.391916275E-1,4.309376717E0,-3.722152948E0
9.200520522E0,1.113347530E0,4.424286366E0,-4.198841095E0
9.205312970E0,2.120958328E0,3.831716537E0,-4.374766827E0
9.210105470E0,3.000649691E0,2.815821171E0,-4.053349495E0
9.214897970E0,3.486933231E0,1.841379642E0,-3.574020863E0
9.219690470E0,3.500418663E0,1.037875175E0,-3.565289259E0
9.224482970E0,2.963785172E0,5.299544334E-1,-4.065237045E0
9.229275418E0,2.210331678E0,1.982917786E-1,-4.935613632E0
9.234067918E0,5.994210243E-1,9.503936768E-2,-5.462699413E0
9.238860418E0,-7.553577423E-1,2.663588524E-1,-4.405016899E0
9.243652918E0,-1.090614319E0,5.053806305E-1,-2.883964539E0
9.248445418E0,-1.046999454E0,6.279087067E-1,-2.510030270E0
9.253237866E0,-7.375741005E-1,7.662796974E-1,-2.955220222E0
9.258030366E0,-3.640127182E-2,1.005249977E0,-3.533453941E0
9.262822866E0,8.352897167E-1,1.584236145E0,-3.945523262E0
9.267615366E0,1.479984760E0,2.253333569E0,-4.273912430E0
9.272407813E0,1.859295130E0,3.090622902E0,-3.264384270E0
9.277200313E0,1.760907173E0,4.177180767E0,-1.612745047E0
9.281992813E0,1.038009405E0,5.402004719E0,6.135177612E-2
9.286785313E0,2.201457024E-1,5.825890064E0,1.775702953E0
9.291577813E0,-3.498840332E-1,5.421987534E0,2.969905376E0
9.296370313E0,-5.987000465E-1,4.159501076E0,3.280526876E0
9.301162761E0,-5.042271614E-1,2.772760868E0,3.301611900E0
9.305955261E0,-1.029488564E0,1.776650906E0,2.182197809E0
9.310747761E0,-1.249825001E0,6.097130775E-1,1.919823408E0
9.315540261E0,-1.385190964E0,-4.837870598E-1,1.760595083E0
9.320332709E0,-1.834487915E0,-7.904424667E-1,1.950168610E0
9.325125209E0,-2.178400517E0,-2.348842621E-1,2.423379183E0
9.329917709E0,-2.251665592E0,2.066249847E-1,2.059071064E0
9.334710209E0,-1.764280319E0,3.083171844E-1,5.969376564E-1
9.339502709E0,-1.185536385E0,2.461338043E-1,1.091781855E0
9.344295157E0,-9.536247253E-1,3.875737190E-1,1.320650339E0
9.349087657E0,-6.915359497E-1,4.904918671E-1,1.479456425E0
9.353880157E0,-4.839191437E-1,3.245239258E-1,2.505803347E0
9.358672657E0,-8.792967796E-1,4.173464775E-1,3.014900208E0
9.363465157E0,-7.122769356E-1,-2.700629234E-1,2.975976229E0
9.368257605E0,-4.069929123E-1,-1.080135345E0,2.047472239E0
9.373050105E0,3.724765778E-1,-1.888724327E0,1.425925493E0
9.377842605E0,7.868471146E-1,-2.460018635E0,1.294392586E0
9.382635105E0,9.880685806E-1,-2.857889175E0,7.985265255E-1
9.387427605E0,1.523343801E0,-3.155903816E0,3.154945374E-1
9.392220053E0,1.949626446E0,-2.811138153E0,-5.043637753E-1
9.397012553E0,2.321086168E0,-2.825245857E0,-8.349411488E-1
9.401805053E0,2.360622406E0,-2.973997116E0,-2.313777447E0
9.406597553E0,2.559262037E0,-3.546383858E0,-4.156841278E0
9.411390001E0,2.516169071E0,-3.994904995E0,-6.629460335E0
9.416182501E0,2.438149214E0,-4.497061729E0,-8.772408485E0
9.420975001E0,2.296895742E0,-4.994219780E0,-1.046795464E1
9.425767501E0,2.363325119E0,-5.376449585E0,-1.039826584E1
9.430560001E0,2.080689192E0,-5.136667728E0,-9.043467522E0
9.435352449E0,1.331933022E0,-4.657886028E0,-7.298386574E0
9.440144949E0,9.061670303E-1,-4.505773544E0,-5.504059792E0
9.444937449E0,8.654198647E-1,-4.595259190E0,-1.995273829E0
9.449729949E0,5.915107727E-1,-4.540858746E0,1.583756447E0
9.454522449E0,-3.532667160E-1,-4.421492577E0,3.072714329E0
9.459314897E0,-1.835049152E0,-4.453966141E0,1.632652283E0
9.464107397E0,-3.156694889E0,-4.579631805E0,-4.765251875E-1
9.468899897E0,-3.931824207E0,-4.135488510E0,-1.460421085E0
9.473692397E0,-4.196492195E0,-3.820211887E0,1.699460268E0
9.478484845E0,-2.772434235E0,-5.312686920E0,3.858451843E0
9.483277345E0,-2.410030842E0,-5.465970039E0,3.916323662E0
9.488069845E0,-2.213963032E0,-5.269843102E0,4.421513557E0
9.492862345E0,-2.194944859E0,-5.208817959E0,4.354016781E0
9.497654793E0,-1.832764149E0,-5.040441513E0,4.393641949E0
9.502447293E0,-1.053017616E0,-4.912285805E0,3.425147057E0
9.507239793E0,-1.497545242E-1,-5.098526001E0,2.028362751E0
9.512032293E0,-4.090423584E-1,-4.009280682E0,1.696141958E0
9.516824741E0,-2.193079948E0,-2.242146015E0,5.605207682E-1
9.521617241E0,-3.231336594E0,-2.466826439E-1,2.409335613E0
9.526409741E0,-3.028537750E0,7.217712402E-1,4.883243084E0
9.531202241E0,-2.792189121E0,1.677378654E0,5.347535133E0
9.535994741E0,-1.807724476E0,1.954620361E0,3.164078951E0
9.540787188E0,-8.179268837E-1,2.225892067E0,2.779870510E0
9.545579688E0,-2.187330723E0,6.308959007E0,3.626999855E0
9.550372188E0,-2.893156052E0,9.273676872E0,2.271639109E0
9.555164688E0,-9.164891243E-1,1.019084835E1,9.595807195E-1
9.559957136E0,-5.926628113E-1,9.875366211E0,7.508019805E-1
9.564749636E0,-4.462442398E-1,9.449589729E0,5.133906007E-1
9.569542136E0,-1.862788200E-1,8.760766029E0,1.389467120E-1
9.574334636E0,3.316559792E-1,7.610321045E0,3.556492329E-1
9.579127084E0,1.704350948E0,5.795419693E0,1.139651775E0
9.583919584E0,3.471912146E0,3.163770676E0,1.992599010E0
9.588712084E0,3.788267136E0,8.996629715E-1,8.690152764E-1
9.593504584E0,2.051624298E0,-4.502754211E-1,-8.307195902E-1
9.598297032E0,9.382977486E-1,-1.791239738E0,-2.224150419E0
9.603089532E0,-3.622217178E-1,-2.936892033E0,-1.910319805E0
9.607882032E0,-1.360087395E-1,-3.801259518E0,-2.697361946E0
9.612674532E0,5.336794853E-1,-3.106678486E0,-2.870765209E0
